#Wavelength		#Intensity
1050.329224	623.791931
1050.251831	541.807861
1050.174561	555.966614
1050.097168	534.487793
1050.019775	548.642822
1049.942383	537.858826
1049.864990	584.060242
1049.787598	591.077271
1049.710205	594.531738
1049.632935	608.663269
1049.555542	555.172485
1049.478027	594.213074
1049.400757	604.779480
1049.323364	522.862915
1049.245850	529.881958
1049.168457	604.455261
1049.091064	533.247559
1049.013672	607.793518
1048.936279	629.007141
1048.858887	536.514648
1048.781494	550.628540
1048.703979	550.530090
1048.626709	632.108582
1048.549316	546.782654
1048.471802	610.583130
1048.394409	667.262207
1048.317017	560.683899
1048.239502	613.803589
1048.162109	610.146423
1048.084717	602.943848
1048.007202	592.197693
1047.929810	563.728027
1047.852417	609.709900
1047.774902	584.791504
1047.697510	630.753113
1047.619995	634.183167
1047.542603	580.935364
1047.465088	573.748047
1047.387695	541.776184
1047.310181	570.002319
1047.232666	651.314636
1047.155273	637.041565
1047.077759	640.466003
1047.000244	619.124268
1046.922852	654.385620
1046.845337	668.414795
1046.767822	707.190613
1046.690308	654.034180
1046.612915	636.243652
1046.535522	639.663757
1046.457886	646.616028
1046.380493	639.434631
1046.302979	614.595032
1046.225464	646.268677
1046.147949	526.102661
1046.070557	614.264832
1045.992920	688.276917
1045.915527	564.638855
1045.837891	677.445251
1045.760498	649.102051
1045.682983	638.404419
1045.605469	645.342957
1045.527954	701.640625
1045.450439	740.292053
1045.372803	563.930969
1045.295410	725.930969
1045.217773	658.858093
1045.140381	651.694641
1045.062866	767.805176
1044.985229	672.589417
1044.907715	767.529907
1044.830200	658.267700
1044.752686	619.434998
1044.675171	668.588318
1044.597534	569.957275
1044.520020	661.313293
1044.442505	654.160706
1044.364868	727.886963
1044.287354	685.567627
1044.209839	601.082275
1044.132202	695.865112
1044.054688	674.657227
1043.977173	727.234375
1043.899536	674.415161
1043.822021	705.901733
1043.744385	730.354309
1043.666870	688.094971
1043.589355	751.152527
1043.511719	722.942322
1043.434204	656.145386
1043.356567	719.174622
1043.278931	712.030457
1043.201416	736.451050
1043.123779	669.699524
1043.046265	659.062317
1042.968628	736.054443
1042.890991	714.895935
1042.813354	704.256287
1042.735840	669.098511
1042.658325	679.485901
1042.580688	756.405090
1042.502930	630.224365
1042.425415	675.619202
1042.347778	720.997742
1042.270142	678.875916
1042.192505	741.731140
1042.114990	692.624390
1042.037354	807.916626
1041.959717	772.803040
1041.882080	765.671753
1041.804443	755.047363
1041.726807	765.396606
1041.649170	747.787354
1041.571533	786.083740
1041.493896	709.094788
1041.416260	740.399353
1041.338623	761.217224
1041.260986	802.974731
1041.183228	785.377502
1041.105713	739.867126
1041.027954	746.712708
1040.950317	718.669006
1040.872803	763.884521
1040.795044	791.646606
1040.717407	732.228577
1040.639771	843.654541
1040.562012	826.075073
1040.484375	773.652649
1040.406738	756.091980
1040.328979	742.021301
1040.251343	724.472656
1040.173706	762.648865
1040.095947	779.920593
1040.018311	845.922363
1039.940674	703.068176
1039.862915	772.539856
1039.785278	779.359436
1039.707642	740.953918
1039.629883	789.513000
1039.552124	803.280518
1039.474487	782.275269
1039.396851	799.515259
1039.319092	754.189453
1039.241333	858.300781
1039.163696	788.660706
1039.085938	732.940308
1039.008179	854.364197
1038.930420	847.265564
1038.852783	864.471863
1038.775024	760.181702
1038.697388	839.866882
1038.619629	742.558411
1038.541870	919.357666
1038.464111	853.287720
1038.386475	773.369507
1038.308594	908.458740
1038.230957	887.494446
1038.153198	790.282349
1038.075439	814.398621
1037.997681	880.085022
1037.919922	821.033691
1037.842163	883.231506
1037.764526	838.052979
1037.686646	824.052307
1037.609009	900.062988
1037.531128	809.910645
1037.453369	899.738525
1037.375610	885.736694
1037.297852	830.228455
1037.220093	871.582703
1037.142334	847.219299
1037.064575	898.927734
1036.986816	936.790344
1036.909058	881.322754
1036.831177	863.886108
1036.753418	905.189331
1036.675659	911.934692
1036.597900	846.150391
1036.520142	880.528259
1036.442261	814.773254
1036.364502	914.728699
1036.286743	859.344727
1036.208984	904.046936
1036.131104	900.433899
1036.053345	934.764587
1035.975464	900.108948
1035.897705	993.044434
1035.819824	899.784119
1035.742065	975.451904
1035.664307	995.953064
1035.586426	868.286743
1035.508667	923.249390
1035.430786	1064.300537
1035.352905	943.578369
1035.275024	991.611328
1035.197266	874.388184
1035.119507	949.951050
1035.041626	970.426880
1034.963745	973.692261
1034.885986	1001.036316
1034.808105	973.340576
1034.730225	880.318665
1034.652466	969.550903
1034.574585	1014.063293
1034.496704	1003.569458
1034.418823	1034.314453
1034.341064	934.494080
1034.263184	906.845093
1034.185303	971.934814
1034.107422	1030.133423
1034.029541	999.048828
1033.951660	995.435730
1033.873779	943.777100
1033.795898	947.037781
1033.718140	1056.648315
1033.640259	1046.167114
1033.562256	973.959839
1033.484375	1069.790649
1033.406616	977.035889
1033.328735	1007.707458
1033.250854	1007.525208
1033.172974	1038.180054
1033.094971	1020.863770
1033.017090	1027.529297
1032.939209	979.400818
1032.861328	1006.614502
1032.783447	1071.473999
1032.705444	1095.238525
1032.627563	1023.178406
1032.549683	1005.886353
1032.471680	1012.545898
1032.393921	1077.345459
1032.315918	1066.891968
1032.238037	1148.752686
1032.160034	1066.505859
1032.082153	1086.818848
1032.004272	1059.285767
1031.926270	1069.343384
1031.848389	1058.902344
1031.770508	1079.201904
1031.692505	1102.908569
1031.614502	1037.843628
1031.536621	1112.749268
1031.458740	1146.675049
1031.380737	1238.594238
1031.302734	992.742920
1031.224854	1169.928345
1031.146851	1145.844727
1031.068848	1094.492676
1030.990967	1104.521484
1030.912964	1053.195435
1030.835083	1121.160278
1030.757080	1127.771606
1030.679077	1073.062500
1030.601196	1052.432495
1030.523193	1144.185303
1030.445190	1137.168579
1030.367310	1191.427856
1030.289307	1082.301147
1030.211304	1190.995972
1030.133301	1156.757935
1030.055298	1074.909546
1029.977417	1152.937622
1029.899414	1200.333984
1029.821411	1217.115234
1029.743408	1223.692871
1029.665283	1271.050415
1029.587402	1158.688843
1029.509277	1229.822021
1029.431396	1239.789063
1029.353394	1202.207520
1029.275391	1147.662231
1029.197388	1147.454102
1029.119385	1123.486450
1029.041260	1208.122803
1028.963257	1143.436890
1028.885254	1224.646362
1028.807251	1261.733521
1028.729248	1149.596924
1028.651245	1254.494751
1028.573120	1213.588135
1028.495117	1287.932495
1028.417114	1223.313843
1028.339111	1307.793457
1028.260986	1266.906738
1028.182983	1212.487427
1028.104858	1269.833130
1028.026855	1249.288940
1027.948853	1221.982178
1027.870850	1150.688477
1027.792725	1299.365112
1027.714722	1288.979736
1027.636597	1221.095093
1027.558594	1342.622437
1027.480469	1196.982544
1027.402466	1362.419067
1027.324463	1206.687988
1027.246338	1334.888550
1027.168335	1280.584473
1027.090210	1283.730103
1027.012085	1283.496826
1026.934082	1306.902710
1026.855957	1326.923706
1026.777832	1370.567871
1026.699829	1312.940918
1026.621704	1282.331299
1026.543579	1336.081421
1026.465454	1315.598633
1026.387329	1338.968506
1026.309326	1335.353027
1026.231201	1331.738892
1026.153198	1358.463867
1026.075073	1428.992432
1025.996948	1357.969971
1025.918823	1428.472900
1025.840698	1381.055176
1025.762573	1276.401855
1025.684448	1319.943359
1025.606445	1481.299683
1025.528198	1474.298340
1025.450073	1356.242432
1025.371948	1345.901489
1025.293945	1342.292603
1025.215698	1392.501343
1025.137573	1429.240112
1025.059448	1439.067017
1024.981323	1442.166992
1024.903198	1371.321777
1024.825073	1397.956055
1024.746948	1390.981934
1024.668823	1410.884399
1024.590698	1363.606689
1024.512451	1396.938721
1024.434326	1369.825195
1024.356201	1460.209595
1024.277954	1503.574219
1024.199829	1469.744751
1024.121704	1388.957886
1024.043579	1526.233765
1023.965393	1445.465942
1023.887146	1512.265503
1023.809082	1488.522461
1023.730835	1471.491821
1023.652649	1464.521240
1023.574524	1373.785645
1023.496338	1514.239136
1023.418213	1467.070557
1023.339966	1453.407959
1023.261841	1563.635620
1023.183594	1543.264893
1023.105408	1556.371826
1023.027222	1479.120483
1022.949036	1488.888428
1022.870850	1451.819824
1022.792603	1615.440552
1022.714478	1514.826538
1022.636230	1588.104736
1022.557983	1494.217773
1022.479797	1557.446411
1022.401550	1547.137939
1022.323364	1610.333740
1022.245117	1533.212524
1022.166931	1496.196045
1022.088684	1549.349121
1022.010437	1532.374023
1021.932312	1572.149414
1021.854004	1515.128784
1021.775818	1611.616211
1021.697632	1604.650146
1021.619324	1564.331909
1021.541138	1620.739014
1021.462891	1500.410522
1021.384644	1590.145142
1021.306396	1639.850464
1021.228210	1549.575928
1021.149841	1642.583862
1021.071655	1592.316162
1020.993408	1518.752441
1020.915100	1608.385010
1020.836914	1691.325928
1020.758606	1504.605957
1020.680359	1544.269287
1020.602112	1563.952759
1020.523804	1613.571533
1020.445557	1649.866821
1020.367310	1649.565552
1020.289001	1576.111572
1020.210754	1599.095459
1020.132446	1711.816650
1020.054199	1638.391235
1019.975891	1538.411011
1019.897644	1627.826538
1019.819336	1667.387085
1019.741028	1740.141968
1019.662781	1690.020020
1019.584473	1663.153931
1019.506226	1609.745117
1019.427856	1639.317139
1019.349548	1682.149658
1019.271301	1605.545654
1019.192993	1704.751465
1019.114685	1654.699463
1019.036377	1724.020996
1018.958008	1664.039063
1018.879700	1660.420776
1018.801392	1603.785889
1018.723145	1739.325806
1018.644775	1662.822754
1018.566467	1639.336304
1018.488159	1648.970093
1018.409729	1718.190796
1018.331482	1549.067993
1018.253052	1624.900146
1018.174805	1654.381836
1018.096436	1716.934326
1018.018127	1663.699463
1017.939819	1646.860474
1017.861511	1709.379761
1017.783081	1659.480957
1017.704773	1761.636597
1017.626404	1622.524048
1017.548035	1648.658569
1017.469666	1701.210083
1017.391357	1783.466675
1017.312988	1736.910767
1017.234558	1700.276367
1017.156250	1802.293091
1017.077881	1656.750122
1016.999512	1755.437744
1016.921082	1722.125488
1016.842773	1685.526855
1016.764404	1840.218872
1016.686035	1902.530273
1016.607666	1803.281616
1016.529236	1882.057251
1016.450806	1812.507690
1016.372437	1920.906372
1016.294067	1848.080811
1016.215698	1847.742310
1016.137329	1837.524780
1016.058899	1906.329712
1015.980591	1915.856079
1015.902161	1958.291260
1015.823730	1957.932495
1015.745361	2013.504517
1015.666870	1990.109497
1015.588501	1953.567749
1015.510010	2068.297852
1015.431702	2051.480713
1015.353271	2080.687988
1015.274841	2017.864502
1015.196411	2132.498535
1015.118042	2033.551025
1015.039551	2010.185913
1014.961182	2154.313965
1014.882690	2055.416748
1014.804260	2117.413330
1014.725830	1969.325684
1014.647400	1962.401367
1014.568970	1965.322510
1014.490601	1919.036377
1014.412109	1977.720947
1014.333618	1905.215698
1014.255127	1813.065552
1014.176758	1802.898926
1014.098267	1720.633301
1014.019836	1890.711060
1013.941406	1756.040161
1013.862915	1821.229858
1013.784485	1827.445679
1013.705994	1797.640747
1013.627563	1794.037109
1013.549072	1656.233887
1013.470520	1708.291382
1013.392090	1747.241699
1013.313599	1789.448975
1013.235168	1635.393555
1013.156677	1638.363525
1013.078186	1667.489014
1012.999756	1637.761963
1012.921265	1719.170898
1012.842712	1663.302856
1012.764282	1698.936523
1012.685791	1600.626953
1012.607239	1590.535034
1012.528748	1511.873657
1012.450256	1720.542236
1012.371826	1707.169434
1012.293213	1566.521606
1012.214783	1559.707886
1012.136230	1683.392090
1012.057739	1585.229126
1011.979187	1506.669312
1011.900696	1499.871338
1011.822205	1538.715576
1011.743652	1600.361206
1011.665161	1606.584717
1011.586609	1518.318237
1011.508057	1570.160645
1011.429565	1608.955933
1011.351013	1657.506104
1011.272522	1526.969482
1011.193909	1503.902344
1011.115479	1536.171875
1011.036865	1545.651367
1010.958313	1655.982910
1010.879761	1538.577393
1010.801270	1499.267944
1010.722717	1511.998535
1010.644165	1485.712402
1010.565613	1514.692871
1010.487061	1530.663330
1010.408508	1549.876953
1010.329956	1465.127686
1010.251404	1562.298828
1010.172852	1565.258789
1010.094238	1483.800049
1010.015625	1532.220459
1009.937134	1509.219116
1009.858521	1473.245972
1009.779968	1447.019287
1009.701416	1466.215942
1009.622742	1401.081177
1009.544250	1410.551270
1009.465637	1565.909912
1009.387024	1591.553223
1009.308411	1455.144287
1009.229797	1509.960693
1009.151245	1499.963623
1009.072693	1499.687500
1008.994019	1502.649780
1008.915527	1531.513794
1008.836853	1495.621704
1008.758240	1505.056274
1008.679688	1514.487305
1008.601074	1488.324341
1008.522400	1568.922485
1008.443848	1594.507690
1008.365173	1558.643188
1008.286560	1513.092529
1008.207947	1609.788940
1008.129333	1674.130615
1008.050720	1593.039063
1007.972107	1699.359253
1007.893433	1715.196655
1007.814819	1705.191895
1007.736267	1611.238403
1007.657593	1665.823120
1007.578979	1620.327637
1007.500244	1549.031616
1007.421692	1542.292847
1007.342957	1609.753540
1007.264404	1573.977661
1007.185730	1663.980957
1007.107117	1454.102783
1007.028442	1569.883423
1006.949707	1650.168457
1006.871094	1498.411621
1006.792419	1523.909546
1006.713745	1488.195190
1006.635132	1426.729126
1006.556458	1355.625610
1006.477722	1455.177368
1006.399109	1368.000610
1006.320435	1490.040894
1006.241760	1464.024780
1006.163025	1457.320435
1006.084351	1379.856689
1006.005676	1357.090942
1005.927002	1366.486206
1005.848389	1411.239380
1005.769592	1266.345459
1005.690979	1246.830688
1005.612305	1285.155151
1005.533569	1230.308838
1005.454895	1326.432617
1005.376221	1252.332153
1005.297424	1277.785034
1005.218811	1296.808472
1005.140076	1306.196899
1005.061340	1293.120728
1004.982605	1273.632935
1004.903931	1209.246582
1004.825195	1289.197144
1004.746460	1253.688843
1004.667786	1256.662964
1004.589050	1237.199707
1004.510315	1275.426025
1004.431580	1316.842285
1004.352844	1287.768311
1004.274170	1217.068359
1004.195374	1258.472290
1004.116699	1306.264038
1004.037903	1238.800781
1003.959167	1200.166382
1003.880432	1257.541748
1003.801697	1270.106323
1003.722961	1253.878052
1003.644165	1292.023071
1003.565430	1221.439453
1003.486694	1249.985596
1003.407959	1236.969116
1003.329224	1227.153198
1003.250366	1226.926147
1003.171631	1134.057861
1003.092957	1168.981323
1003.014160	1203.891846
1002.935364	1181.319824
1002.856567	1117.257935
1002.777832	1231.947754
1002.699036	1155.136230
1002.620239	1138.970459
1002.541504	1122.810547
1002.462708	1154.494873
1002.383911	1167.035645
1002.305115	1150.879395
1002.226318	1185.728149
1002.147583	1137.705933
1002.068726	1102.446289
1001.989990	1092.685181
1001.911194	1168.924805
1001.832336	1120.940918
1001.753540	1162.124023
1001.674744	1095.059204
1001.595886	1056.663696
1001.517151	1081.925049
1001.438293	1116.721558
1001.359558	1065.619385
1001.280762	1141.750732
1001.201904	1023.887451
1001.123047	1045.952026
1001.044250	1074.365601
1000.965393	1020.140320
1000.886597	1083.499634
1000.807800	1054.707275
1000.728943	1013.220703
1000.650146	1140.058960
1000.571228	1085.871460
1000.492432	1133.287231
1000.413574	1041.034546
1000.334778	1063.054565
1000.255920	1113.620728
1000.177063	1100.725708
1000.098267	1014.890259
1000.019348	1074.949951
999.940552	1090.602295
999.861633	1017.495361
999.782776	1096.536133
999.703918	1064.646851
999.625061	1108.801270
999.546204	1111.763062
999.467346	981.716736
999.388489	1101.851685
999.309631	1013.008972
999.230774	990.665527
999.151917	1012.632996
999.072998	974.478333
998.994080	926.847900
998.915222	980.442078
998.836304	1005.557068
998.757507	1027.501221
998.678589	967.252258
998.599731	998.676331
998.520813	960.573547
998.441895	878.256104
998.363037	868.617188
998.284119	950.564392
998.205200	934.600647
998.126282	890.231201
998.047363	981.597412
997.968506	902.523193
997.889648	814.013000
997.810669	996.822937
997.731689	826.326233
997.652893	927.079224
997.573975	844.935608
997.494934	882.604492
997.416077	866.682617
997.337158	797.199768
997.258240	841.157227
997.179260	778.004517
997.100342	866.038391
997.021423	869.026001
996.942505	837.383850
996.863586	808.900879
996.784607	862.247559
996.705688	729.942444
996.626770	792.721069
996.547791	792.573669
996.468872	836.449951
996.389954	826.862427
996.310913	810.991760
996.231995	810.840881
996.153015	939.520630
996.074097	848.238708
995.995117	826.093567
995.916138	847.923096
995.837219	747.289368
995.758179	838.189636
995.679199	885.114197
995.600281	897.501953
995.521301	869.097046
995.442322	843.839661
995.363281	846.818970
995.284363	871.747559
995.205322	815.151672
995.126404	843.211426
995.047424	893.198914
994.968384	921.233643
994.889465	852.139099
994.810486	845.715820
994.731445	842.426575
994.652405	829.745239
994.573425	813.937988
994.494446	798.136658
994.415466	832.410950
994.336487	832.255859
994.257385	832.100830
994.178406	791.286743
994.099365	737.979736
994.020325	809.750549
993.941345	847.110046
993.862305	762.569458
993.783325	765.552063
993.704224	787.278198
993.625244	780.884338
993.546204	724.525574
993.467163	752.491882
993.388123	780.447693
993.309143	761.574890
993.230103	755.191650
993.151062	792.491333
993.071960	711.237488
992.992981	673.678284
992.913940	742.155212
992.834900	735.781311
992.755798	685.769897
992.676758	726.157166
992.597656	676.166138
992.518677	719.655457
992.439636	694.602661
992.360596	762.986084
992.281433	666.320618
992.202393	625.726379
992.123352	731.434143
992.044250	588.149963
991.965149	678.268555
991.886108	740.356812
991.807007	702.896667
991.727966	724.532471
991.648865	702.634216
991.569824	677.635620
991.490723	668.185608
991.411621	714.669678
991.332520	739.389648
991.253418	677.129578
991.174377	686.319641
991.095215	760.709961
991.016235	732.628662
990.937073	738.699341
990.857971	688.910156
990.778870	719.807617
990.699707	710.367004
990.620667	614.088989
990.541504	688.395386
990.462463	660.364014
990.383301	657.140869
990.304199	672.513733
990.225098	638.303833
990.145935	619.596619
990.066833	542.045654
989.987671	619.364929
989.908569	625.441650
989.829407	606.750671
989.750305	535.450195
989.671204	603.429260
989.592102	547.625671
989.512878	609.390259
989.433716	643.296814
989.354553	630.807678
989.275452	556.490906
989.196289	550.204712
989.117188	608.820496
989.038025	519.100037
988.958923	549.895935
988.879761	673.342041
988.800598	633.070068
988.721436	524.886719
988.642212	561.832336
988.563049	632.714661
988.483887	607.909546
988.404785	641.733582
988.325623	684.798950
988.246460	687.754883
988.167175	629.039124
988.088013	718.326782
988.008789	715.109924
987.929688	764.284668
987.850525	680.948730
987.771301	690.063110
987.692139	686.853760
987.612915	668.248169
987.533752	695.833191
987.454529	637.214539
987.375366	677.105957
987.296204	590.818115
987.216980	639.932983
987.137695	627.508972
987.058533	532.052490
986.979309	608.824585
986.900146	584.116089
986.820923	565.564270
986.741699	553.165710
986.662537	559.207153
986.583252	543.742310
986.504089	589.711609
986.424805	580.388550
986.345581	571.068909
986.266357	549.473999
986.187134	552.440063
986.107910	546.199402
986.028748	484.737732
985.949463	582.803101
985.870178	524.424377
985.790955	450.736389
985.711731	481.308411
985.632507	517.999146
985.553284	465.805267
985.473999	502.485077
985.394714	465.630463
985.315552	563.552185
985.236267	471.580139
985.156921	483.738159
985.077698	508.135834
984.998474	459.072693
984.919189	465.106323
984.839905	480.315674
984.760620	504.695587
984.681396	522.949951
984.602112	510.621277
984.522888	541.095764
984.443604	547.107056
984.364258	540.892517
984.284973	574.399414
984.205688	617.057922
984.126465	583.346130
984.047180	665.683594
983.967834	570.914856
983.888611	558.597839
983.809326	387.587921
983.730042	320.386505
983.650757	311.174103
983.571350	195.209808
983.492126	216.520172
983.412781	201.234436
983.333557	137.179504
983.254211	146.297302
983.174866	121.891495
983.095581	106.635010
983.016296	112.707245
982.936951	118.777184
982.857666	79.169899
982.778320	82.199432
982.699036	97.403229
982.619629	155.207199
982.540344	121.708237
982.461060	97.348274
982.381714	121.662453
982.302368	66.901756
982.223022	66.889168
982.143677	145.912552
982.064392	118.531639
981.984985	51.657913
981.905701	118.487030
981.826355	97.201828
981.747009	94.146545
981.667664	100.201653
981.588196	133.577057
981.508911	48.564327
981.429504	60.693981
981.350220	142.604004
981.270874	66.738243
981.191528	81.890594
981.112183	84.907593
981.032715	139.464767
980.953430	133.375961
980.874023	87.890327
980.794617	93.934029
980.715271	121.182365
980.635864	99.956612
980.556519	78.738861
980.477112	78.724022
980.397705	93.845573
980.318359	84.747765
980.239014	90.784065
980.159607	51.434608
980.080139	105.874825
980.000793	75.610619
979.921387	139.097321
979.842041	123.954666
979.762634	81.613297
979.683167	72.531471
979.603760	75.539375
979.524414	111.777191
979.444946	172.164825
979.365601	87.576111
979.286194	72.463112
979.206787	72.449440
979.127258	90.544716
979.047913	81.474876
978.968506	-3.017019
978.889099	78.427689
978.809631	33.174683
978.730225	84.428711
978.650818	99.486496
978.571411	90.425201
978.491882	69.312904
978.412415	75.325890
978.333069	126.523613
978.253662	72.285561
978.174194	126.475845
978.094666	87.312073
978.015259	90.305779
977.935791	105.336853
977.856323	69.208290
977.776978	72.203705
977.697449	108.285103
977.617981	150.367569
977.538574	102.230637
977.459045	54.111881
977.379700	81.152489
977.300171	75.126999
977.220764	96.144386
977.141174	51.067055
977.061768	39.043900
976.982239	57.053375
976.902832	72.053802
976.823364	81.045212
976.743835	111.040962
976.664368	99.017815
976.584839	125.998848
976.505432	143.971466
976.425903	185.927979
976.346375	191.889374
976.266907	206.841614
976.187439	239.771027
976.107971	347.602234
976.028381	371.504517
975.948975	314.520966
975.869446	311.466583
975.789917	245.532974
975.710449	173.636810
975.630920	128.706390
975.551392	95.763374
975.471924	104.721375
975.392395	62.820938
975.312866	92.718124
975.233337	71.768188
975.153870	68.764832
975.074280	92.665489
974.994812	80.693375
974.915283	98.606567
974.835693	80.662827
974.756165	86.621452
974.676697	86.605049
974.597107	107.489365
974.517578	80.601753
974.438049	83.571182
974.358459	59.682396
974.278931	50.720428
974.199402	71.591743
974.119873	98.420006
974.040283	122.256241
973.960693	74.532364
973.881165	110.287003
973.801575	92.385117
973.722046	107.265610
973.642517	95.329140
973.562927	56.590954
973.483398	89.337204
973.403809	131.003067
973.324280	29.767780
973.244690	74.405342
973.165039	74.391235
973.085510	59.501709
973.005920	130.878937
972.926392	68.401016
972.846863	101.095375
972.767151	89.184891
972.687622	77.278908
972.608093	124.811485
972.528442	86.163017
972.448853	20.794024
972.369263	148.500565
972.289673	80.175095
972.210083	106.879845
972.130493	62.334747
972.050903	53.419647
971.971252	133.523773
971.891663	59.332638
971.812012	65.253517
971.732483	68.206635
971.652771	83.018402
971.573242	71.145126
971.493591	47.421082
971.413940	82.971138
971.334351	56.291153
971.254761	130.333710
971.175049	74.039185
971.095520	106.596176
971.015869	118.417702
970.936218	23.679043
970.856567	82.860909
970.776978	88.762680
970.697388	62.122074
970.617676	79.856064
970.538025	65.055542
970.458374	130.086365
970.378723	82.766502
970.299072	59.107697
970.219482	135.921860
970.139771	112.261940
970.060181	76.796204
969.980530	53.156494
969.900879	85.624741
969.821106	97.416527
969.741516	76.737823
969.661804	120.986641
969.582214	32.453659
969.502502	61.945202
969.422852	103.222374
969.343201	109.100044
969.263489	106.131203
969.183838	109.058548
969.104126	76.621155
969.024414	100.177841
968.944763	73.646164
968.865112	67.741577
968.785400	132.512650
968.705688	67.715805
968.626099	91.251755
968.546387	97.120483
968.466675	70.619637
968.386902	47.070797
968.307251	105.889130
968.227600	79.401733
968.147827	64.685394
968.068115	91.130241
967.988403	64.660759
967.908691	91.095543
967.829041	108.706238
967.749268	88.123405
967.669556	20.558212
967.589905	135.071091
967.510193	99.816139
967.430359	49.898563
967.350708	88.039513
967.270996	146.704575
967.191223	105.607162
967.111511	134.916779
967.031799	85.040024
966.952026	105.546806
966.872375	123.114479
966.792542	114.298798
966.712769	76.184677
966.633118	108.395988
966.553406	84.942825
966.473572	84.926628
966.393860	84.910439
966.314148	99.531189
966.234375	108.292702
966.154602	52.672890
966.074829	111.177116
965.995056	55.577957
965.915344	78.964134
965.835571	46.784637
965.755737	52.622677
965.676086	78.918961
965.596313	43.835499
965.516418	102.263321
965.436707	70.110039
965.356995	64.255272
965.277161	81.763832
965.197388	58.391590
965.117615	67.137512
965.037842	67.124702
964.958069	70.029793
964.878235	46.677616
964.798401	67.086266
964.718628	61.240982
964.638855	122.458580
964.559021	99.114204
964.479309	69.949608
964.399414	58.280209
964.319702	75.749802
964.239868	87.386925
964.160095	66.983841
964.080261	96.088898
964.000427	55.313339
963.920654	64.034790
963.840820	58.202324
963.760986	81.467682
963.681152	61.089088
963.601379	107.612587
963.521606	78.513092
963.441711	84.312759
963.361877	72.669525
963.282104	78.468079
963.202271	107.509781
963.122375	107.489220
963.042603	84.232201
962.962708	43.560051
962.882935	75.489647
962.803101	95.795464
962.723267	113.191170
962.643433	113.169518
962.563538	66.728233
962.483704	87.020180
962.403870	92.803764
962.323975	101.484703
962.244141	55.081154
962.164307	133.328857
962.084412	63.753773
962.004578	110.099083
961.924683	84.006905
961.844849	57.924706
961.764954	46.330894
961.685120	104.224564
961.605164	92.626320
961.525391	98.396622
961.445496	83.910461
961.365601	89.680222
961.285706	104.124832
961.205872	83.862274
961.125916	86.737465
961.046082	78.048767
960.966187	69.363388
960.886292	78.018867
960.806396	118.450401
960.726563	109.762268
960.646606	72.198181
960.566772	75.071724
960.486816	69.283699
960.406921	126.995773
960.327026	144.285721
960.247070	75.014198
960.167236	95.192078
960.087280	72.101387
960.007324	89.388580
959.927551	95.137344
959.847534	126.825478
959.767639	103.746407
959.687744	66.269714
959.607849	95.064407
959.527893	48.963181
959.447937	92.148308
959.368042	40.307156
959.288147	86.355904
959.208191	115.119118
959.128235	83.445351
959.048279	86.306221
958.968323	66.155403
958.888428	115.030800
958.808472	123.634384
958.728516	60.367996
958.648621	103.468132
958.568665	60.344826
958.488708	74.698303
958.408813	91.918724
958.328796	77.541534
958.248901	123.468369
958.168884	71.770149
958.088928	94.718414
958.008972	88.960815
957.929077	80.336273
957.849060	91.795258
957.769104	77.437370
957.689148	80.289993
957.609131	117.544914
957.529175	88.858345
957.449158	100.304672
957.369202	74.497726
957.289185	91.671890
957.209290	63.012314
957.129272	74.454788
957.049316	62.988098
956.969299	80.151260
956.889343	71.549873
956.809326	60.090340
956.729309	45.774315
956.649292	88.670685
956.569336	74.354668
956.489380	77.199615
956.409302	60.032600
956.329346	62.879200
956.249329	34.291149
956.169373	82.854340
956.089294	62.842930
956.009277	54.262997
955.929321	65.674149
955.849304	71.371216
955.769287	105.609077
955.689270	65.636253
955.609253	68.476830
955.529175	51.347736
955.449219	114.084122
955.369141	102.655952
955.289124	96.934181
955.209106	99.765976
955.129089	62.697971
955.049011	65.535263
954.968933	56.976212
954.888977	79.751343
954.808899	65.497414
954.728882	59.790474
954.648804	74.012047
954.568787	42.691032
954.488708	110.975304
954.408630	51.209507
954.328552	56.888493
954.248535	76.784668
954.168518	76.769875
954.088379	65.383965
954.008423	102.320396
953.928345	68.200455
953.848267	79.551857
953.768127	82.377121
953.688110	34.080513
953.607971	68.147888
953.528015	59.617908
953.447876	102.182426
953.367859	65.270630
953.287720	85.119194
953.207642	76.592499
953.127563	107.776070
953.047546	107.755287
952.967407	82.218437
952.887268	73.698860
952.807190	76.518677
952.727173	53.836086
952.647034	87.820885
952.566895	101.965866
952.486816	65.132286
952.406738	39.638092
952.326660	90.583870
952.246521	59.434193
952.166382	73.570992
952.086365	70.727684
952.006165	76.371155
951.926086	53.732288
951.846008	11.309877
951.765808	101.769241
951.685791	70.659439
951.605652	64.994133
951.525452	67.806870
951.445374	48.020592
951.365234	59.308098
951.285095	81.885841
951.204956	36.700356
951.124817	67.741417
951.044678	62.084301
950.964600	107.215805
950.884399	93.090469
950.804321	53.587189
950.724182	135.352005
950.644043	64.843636
950.563904	67.649841
950.483704	47.909378
950.403625	25.358887
950.323425	104.233047
950.243286	87.313507
950.163086	47.872345
950.082947	64.755943
950.002747	73.188217
949.922668	98.503548
949.842468	73.159912
949.762329	70.332466
949.682129	1580.768066
949.601929	6979.906738
949.521790	4349.647949
949.441589	1501.139526
949.361389	168.634720
949.281250	53.390663
949.201050	89.903717
949.120911	81.459480
949.040710	70.210098
948.960571	95.467255
948.880371	87.026833
948.800171	75.782890
948.719910	56.124607
948.639771	109.421799
948.559570	5.610288
948.479309	75.724220
948.399231	67.297386
948.318909	75.694901
948.238770	89.695099
948.158569	47.641296
948.078369	53.235840
947.998108	42.020153
947.917908	16.804806
947.837708	53.204910
947.757446	92.390625
947.677307	50.385120
947.597046	75.563042
947.516846	53.163689
947.436584	83.926399
947.356384	55.940086
947.276123	78.300941
947.195923	64.306168
947.115723	22.363026
947.035461	111.793457
946.955261	103.388901
946.875061	72.637573
946.794739	134.074127
946.714478	41.890041
946.634338	67.011070
946.554016	69.789658
946.473755	61.402988
946.393555	41.857552
946.313293	94.858719
946.233093	86.472054
946.152832	80.877518
946.072510	72.496803
945.992249	114.299706
945.912048	64.106903
945.831726	44.587452
945.751465	64.082024
945.671204	80.783394
945.590942	89.122993
945.510681	75.182930
945.430359	58.464260
945.350098	41.752079
945.269897	94.619667
945.189636	50.083038
945.109253	83.455521
945.029053	91.783249
944.948730	58.396175
944.868408	100.088287
944.788086	55.593803
944.707825	69.478752
944.627563	122.258850
944.547302	47.227200
944.466980	122.211349
944.386719	72.201767
944.306396	47.199673
944.226135	69.397797
944.145752	86.036545
944.065491	61.046322
943.985168	44.388695
943.904846	30.511297
943.824585	52.691086
943.744263	83.180275
943.663879	55.442734
943.583557	110.863907
943.503296	44.336941
943.422974	83.115593
943.342590	63.709564
943.262329	96.930481
943.182007	69.222588
943.101685	69.209122
943.021362	105.177399
942.941040	66.414909
942.860718	80.235733
942.780334	63.622852
942.699951	35.953747
942.619690	107.840240
942.539368	99.525467
942.458923	60.809280
942.378601	46.979843
942.298279	127.097183
942.217957	88.398216
942.137573	116.000069
942.057251	71.795586
941.976868	41.412464
941.896484	107.651443
941.816162	99.351212
941.735779	46.906712
941.655457	68.967018
941.575073	82.744301
941.494629	77.212975
941.414307	71.683792
941.333923	110.261269
941.253540	88.191826
941.173157	60.620068
941.092834	104.686981
941.012390	85.385895
940.932068	41.307705
940.851685	60.572823
940.771301	71.572105
940.690918	85.319336
940.610535	49.530602
940.530090	99.041893
940.449707	71.516312
940.369263	96.253181
940.288879	46.742428
940.208496	79.721535
940.128174	71.460533
940.047729	71.446594
939.967285	82.422302
939.886902	52.190605
939.806519	60.419437
939.726135	52.170242
939.645630	82.357994
939.565308	85.086655
939.484863	32.930340
939.404480	117.977356
939.324097	52.119358
939.243591	95.990601
939.163147	93.229805
939.082764	74.020981
939.002380	41.114738
938.921936	41.106712
938.841431	65.757896
938.761047	82.181320
938.680603	98.598320
938.600159	32.859688
938.519714	68.444313
938.439270	41.058567
938.358826	73.890984
938.278442	57.459534
938.197937	84.804649
938.117493	30.086092
938.037048	95.709770
937.956543	43.744488
937.876160	24.601465
937.795654	65.591087
937.715210	84.705254
937.634766	38.246510
937.554321	73.746704
937.473877	103.771370
937.393372	60.066414
937.312927	70.973701
937.232422	70.959824
937.151978	79.132011
937.071533	40.922348
936.991028	106.377289
936.910522	122.719017
936.830017	87.249786
936.749573	54.520451
936.669067	70.862717
936.588623	79.023720
936.508118	114.425751
936.427612	87.164467
936.347168	43.573704
936.266663	59.902115
936.186096	32.667488
936.105652	76.209213
936.025146	114.291443
935.944641	78.900070
935.864136	76.164467
935.783691	81.588806
935.703125	51.662792
935.622681	27.185617
935.542175	114.157234
935.461670	89.677406
935.381042	57.056259
935.300598	57.045086
935.220032	124.931419
935.139587	86.891785
935.059082	76.015419
934.978516	51.571785
934.897949	56.989223
934.817505	67.831017
934.736938	75.955849
934.656372	97.638382
934.575867	35.251392
934.495361	75.911194
934.414734	73.185730
934.334290	84.011589
934.253723	24.385679
934.173157	48.761795
934.092651	70.419891
934.012024	2.707926
933.931519	108.295799
933.850952	113.688286
933.770447	64.951996
933.689880	18.940615
933.609314	83.863411
933.528748	110.894363
933.448242	70.309456
933.367676	100.036133
933.287109	86.500755
933.206482	37.836655
933.125916	40.531315
933.045349	56.732704
932.964844	83.731842
932.884277	48.608944
932.803589	62.099232
932.723083	83.682533
932.642517	83.666100
932.561951	53.967529
932.481323	89.028938
932.400757	45.854385
932.320190	78.206825
932.239563	67.406433
932.158936	51.218826
932.078430	70.075150
931.997864	102.397400
931.917175	56.576920
931.836609	99.663559
931.755981	51.168526
931.675415	26.925510
931.594849	59.224483
931.514221	80.744781
931.433594	75.346985
931.353027	166.806961
931.272400	86.076988
931.191772	59.166294
931.111145	59.154659
931.030518	69.896301
930.949890	102.136047
930.869324	53.745243
930.788696	45.674473
930.708069	102.075798
930.627441	59.084888
930.546753	56.388115
930.466187	75.169365
930.385559	50.997746
930.304871	85.874039
930.224304	77.808037
930.143555	123.395355
930.062988	67.049492
929.982300	5.362904
929.901672	29.490164
929.821045	50.927528
929.740417	96.475273
929.659729	69.662865
929.579102	26.788134
929.498474	77.670296
929.417786	64.266205
929.337158	88.348625
929.256470	26.767038
929.175842	48.171181
929.095154	66.891235
929.014465	64.202934
928.933838	34.769741
928.853210	45.459164
928.772522	56.144371
928.691772	122.958672
928.611145	61.467220
928.530457	98.862564
928.449768	21.371477
928.369141	80.127243
928.288452	88.122589
928.207764	104.124344
928.127075	64.063889
928.046387	40.032036
927.965698	88.053108
927.885010	80.032494
927.804321	37.341133
927.723633	48.000561
927.642944	50.657265
927.562195	53.312916
927.481567	58.632641
927.400818	45.298100
927.320129	85.250191
927.239441	93.223999
927.158752	61.249397
927.078003	50.587341
926.997253	45.253426
926.916626	66.536018
926.835876	63.861973
926.755127	77.151314
926.674438	95.755142
926.593689	55.846138
926.512939	93.058517
926.432251	58.482376
926.351501	39.866474
926.270813	37.201359
926.190063	37.194012
926.109314	103.591423
926.028564	82.325638
925.947876	37.171974
925.867126	61.056179
925.786377	29.195013
925.705627	79.607025
925.624939	79.591301
925.544128	34.482746
925.463440	87.515823
925.382690	60.983822
925.301941	50.367985
925.221191	68.910980
925.140442	60.947666
925.059692	74.182487
924.978882	84.763222
924.898193	52.966537
924.817383	82.081902
924.736633	68.829269
924.655884	31.761072
924.575073	79.386978
924.494263	23.811382
924.413574	119.033356
924.332825	60.827232
924.252014	81.968315
924.171204	63.446781
924.090454	66.077316
924.009705	55.493965
923.928894	39.630699
923.848145	76.604187
923.767273	34.333012
923.686523	89.776253
923.605713	58.079018
923.524902	73.904114
923.444153	76.528397
923.363342	68.598076
923.282532	42.205841
923.201782	73.845596
923.120972	79.104607
923.040161	97.543030
922.959412	50.079742
922.878540	100.139641
922.797729	73.772484
922.716980	55.318401
922.636169	44.772690
922.555298	60.562813
922.474487	52.652878
922.393616	34.217587
922.312866	57.895210
922.232056	99.980995
922.151184	76.286163
922.070374	78.901070
921.989624	76.255913
921.908752	57.837845
921.827942	110.395805
921.747070	78.838509
921.666199	70.940590
921.585388	60.418884
921.504578	78.791611
921.423706	57.769054
921.342896	73.509666
921.262024	49.871662
921.181152	70.856194
921.100403	57.723221
921.019531	76.074600
920.938660	57.700314
920.857788	70.799965
920.776917	60.299110
920.696045	81.256584
920.615173	86.481773
920.534363	60.263206
920.453491	57.631622
920.372681	28.810089
920.291748	28.804369
920.210876	52.361179
920.130005	73.291092
920.049194	73.276535
919.968323	115.125969
919.887390	73.247429
919.806519	78.463799
919.725647	73.218330
919.644775	62.746098
919.563904	107.169945
919.483032	49.654255
919.402100	70.547287
919.321228	70.533264
919.240356	83.578362
919.159485	54.837399
919.078552	36.550999
918.997681	26.102665
918.916809	60.024193
918.835815	96.541458
918.754944	13.043549
918.674133	67.812965
918.593201	65.191803
918.512268	54.750225
918.431335	67.772507
918.350464	65.152908
918.269531	41.689568
918.188599	23.445715
918.107666	57.300346
918.026733	67.705116
917.945862	80.709267
917.864990	80.693207
917.784058	85.882118
917.703064	70.253204
917.622192	52.029049
917.541260	49.417759
917.460266	78.012505
917.379395	80.596870
917.298462	67.583916
917.217529	80.564774
917.136536	46.770229
917.055603	67.543541
916.974670	62.335468
916.893799	93.484581
916.812866	51.925529
916.731812	49.319427
916.650940	54.500084
916.569946	46.705048
916.488953	64.855194
916.408020	57.061199
916.327087	57.049828
916.246155	70.001740
916.165161	80.356354
916.084167	75.157082
916.003235	85.506531
915.922241	82.898888
915.841309	51.801476
915.760315	44.022472
915.679443	46.602737
915.598450	54.359016
915.517395	77.640251
915.436462	80.212250
915.355469	87.957184
915.274536	67.247955
915.193542	64.648598
915.112488	80.148262
915.031555	80.132271
914.950623	77.531883
914.869568	118.858498
914.788574	33.583740
914.707642	23.245640
914.626587	100.710999
914.545654	80.036354
914.464600	85.182983
914.383606	59.358101
914.302612	59.346249
914.221619	64.493912
914.140564	36.109379
914.059570	92.834145
913.978577	36.094955
913.897583	82.486275
913.816589	46.389259
913.735535	30.919994
913.654541	43.794575
913.573547	59.239643
913.492554	61.802929
913.411438	72.089005
913.330444	77.222786
913.249451	54.045147
913.168396	102.922562
913.087341	77.176491
913.006348	56.584778
912.925293	20.572168
912.844238	33.423088
912.763245	95.108231
912.682190	33.409725
912.601135	69.375549
912.520142	28.258459
912.439087	23.115932
912.358032	41.086773
912.276978	56.483009
912.195984	69.306190
912.114868	25.663822
912.033813	59.014980
911.952759	71.829948
911.871704	84.639778
911.790649	105.137466
911.709595	66.659195
911.628540	84.588966
911.547485	53.818565
911.466431	43.558689
911.385315	69.167595
911.304260	51.224998
911.223206	102.429482
911.142090	64.005600
911.061035	76.791344
910.979980	76.775963
910.898865	40.938976
910.817871	48.605297
910.736755	58.826202
910.655701	71.600159
910.574524	61.359268
910.493530	84.352089
910.412415	94.557625
910.331299	84.318283
910.250244	53.646332
910.169128	71.514107
910.088013	117.463905
910.006897	48.507973
909.925842	56.155869
909.844727	48.488525
909.763611	63.787895
909.682556	51.020084
909.601440	30.605911
909.520325	40.799698
909.439209	99.429314
909.358032	84.115616
909.276978	58.614277
909.195862	17.835548
909.114746	71.327881
909.033630	63.672825
908.952515	76.392059
908.871338	91.652069
908.790222	101.815193
908.709167	38.173035
908.627991	58.520237
908.546875	73.771576
908.465698	73.756760
908.384644	94.084564
908.303467	101.692619
908.222351	71.170540
908.141174	63.532360
908.060059	53.356464
907.978882	99.070671
907.897766	73.653137
907.816650	22.853279
907.735413	48.236118
907.654297	65.994057
907.573181	88.820305
907.492004	60.893112
907.410889	32.977139
907.329651	103.983925
907.248535	73.534821
907.167358	35.492432
907.086182	68.435928
907.005066	40.546471
906.923828	68.408417
906.842712	50.662712
906.761536	78.511414
906.680359	45.578102
906.599182	63.290188
906.518005	86.057343
906.436890	108.815338
906.355652	40.481281
906.274475	80.946274
906.193298	20.232498
906.112122	103.670685
906.030945	80.897423
905.949768	32.857964
905.868591	65.702705
905.787415	63.162960
905.706177	68.202271
905.624939	70.714035
905.543823	50.499859
905.462524	68.161087
905.381348	50.479527
905.300232	68.133636
905.218994	73.165833
905.137756	83.240906
905.056580	58.004704
904.975403	98.335991
904.894104	42.855770
904.812988	60.490078
904.731750	105.836304
904.650513	50.388088
904.569275	50.377934
904.488098	103.253952
904.406860	83.090088
904.325623	73.003845
904.244385	55.371063
904.163208	37.745388
904.081909	55.348743
904.000671	50.306892
903.919434	40.237400
903.838257	82.972900
903.757019	67.873230
903.675781	65.346230
903.594482	70.358665
903.513245	40.196842
903.432007	87.912857
903.350830	57.759651
903.269531	42.683300
903.188293	72.797997
903.106995	50.195385
903.025818	50.185257
902.944580	50.175129
902.863281	60.198002
902.782043	92.786522
902.700745	60.173702
902.619507	65.175018
902.538269	65.161858
902.457031	70.160141
902.375732	80.166824
902.294434	52.598854
902.213196	67.613441
902.131897	52.577610
902.050598	67.586128
901.969421	57.561741
901.888062	75.065361
901.806824	85.056892
901.725586	72.533867
901.644287	77.520538
901.562988	30.001884
901.481689	64.990944
901.400330	99.965866
901.319092	57.468754
901.237793	104.921730
901.156494	52.450260
901.075256	57.433907
900.993958	42.442566
900.912659	87.364082
900.831299	87.346413
900.750000	79.843430
900.668701	12.473013
900.587463	34.917370
900.506104	64.833427
900.424805	59.834137
900.343506	89.733047
900.262207	87.222809
900.180847	54.814671
900.099609	57.294651
900.018250	42.339649
899.936951	62.251591
899.855591	27.385155
899.774292	49.781113
899.692932	64.702347
899.611633	19.904383
899.530273	94.526680
899.448975	29.844486
899.367615	57.190346
899.286316	59.664799
899.205017	22.369768
899.123596	57.155605
899.042297	42.236889
898.960938	94.392746
898.879639	67.054939
898.798279	74.490395
898.716919	89.370361
898.635559	39.712112
898.554199	94.297150
898.472900	47.139019
898.391479	74.414940
898.310181	69.439865
898.228821	47.110359
898.147461	59.495754
898.066101	52.048229
897.984741	101.597366
897.903381	81.756912
897.821960	54.493553
897.740662	61.911934
897.659302	54.471451
897.577881	29.705673
897.496521	71.774147
897.415161	79.182991
897.333801	54.427258
897.252441	42.048893
897.171082	59.351097
897.089600	74.173813
897.008301	76.630722
896.926880	81.558083
896.845520	56.831970
896.764038	54.349979
896.682739	37.049282
896.601318	76.552971
896.519897	71.599525
896.438477	69.116539
896.357117	51.826874
896.275757	51.816349
896.194336	41.938049
896.112915	76.459732
896.031555	56.716663
895.950073	51.774258
895.868713	91.202774
895.787292	59.146538
895.705872	66.526329
895.624512	78.830002
895.543030	96.054535
895.461670	68.948212
895.380249	64.010323
895.298828	71.381615
895.217407	46.757759
895.135986	81.194328
895.054565	46.738747
894.973145	66.404709
894.891724	81.144806
894.810242	66.377701
894.728882	36.868999
894.647400	86.010170
894.565979	49.138668
894.484558	36.846504
894.403076	78.589882
894.321655	76.118454
894.240173	36.824013
894.158752	78.541908
894.077332	68.710182
893.995850	73.603065
893.914429	44.152851
893.833008	63.763355
893.751526	71.106186
893.670105	29.417259
893.588623	53.920658
893.507141	95.567162
893.425659	73.498230
893.344238	56.337162
893.262756	85.713005
893.181274	61.211102
893.099854	53.854797
893.018372	97.897858
892.936890	48.938957
892.855408	70.947029
892.773926	90.500175
892.692505	44.018139
892.610962	88.018333
892.529541	31.777920
892.448059	63.542885
892.366577	87.964516
892.285095	51.302174
892.203613	39.079399
892.122131	75.700897
892.040588	51.270794
891.959106	26.850653
891.877625	36.607059
891.796143	87.839020
891.714661	60.986877
891.633118	65.852386
891.551636	48.769596
891.470154	73.139465
891.388672	60.937119
891.307190	75.546608
891.225647	26.801388
891.144104	63.335808
891.062622	56.016392
890.981079	58.439957
890.899597	65.731529
890.818054	48.680080
890.736572	80.305725
890.655029	53.526218
890.573547	92.435501
890.492004	-7.296049
890.410461	80.240143
890.328979	48.620457
890.247437	53.471577
890.165894	70.470863
890.084412	63.167862
890.002869	82.587250
889.921326	50.999348
889.839722	48.560879
889.758240	55.833599
889.676697	82.519753
889.595154	41.251442
889.513611	60.651485
889.432068	55.787956
889.350525	87.302429
889.268982	63.038860
889.187439	94.538956
889.105835	70.283821
889.024353	82.384865
888.942749	46.029182
888.861206	60.552326
888.779663	48.431950
888.698120	65.369759
888.616516	60.515167
888.534912	72.603340
888.453369	113.721962
888.371826	36.286816
888.290283	24.186258
888.208679	79.798317
888.127136	29.011629
888.045532	89.434212
887.963989	62.832794
887.882385	77.316833
887.800781	48.313126
887.719238	86.945816
887.637634	16.902668
887.556091	72.425171
887.474487	60.341946
887.392883	67.569138
887.311279	50.666470
887.229736	72.365845
887.148071	60.292511
887.066528	69.924980
886.984924	57.857090
886.903381	72.306541
886.821716	72.291718
886.740173	53.003059
886.658569	33.722305
886.576965	52.981331
886.495361	74.640205
886.413696	74.624901
886.332153	43.321701
886.250549	72.188026
886.168945	45.709705
886.087280	50.510891
886.005676	62.524467
885.924072	93.767464
885.842407	28.845608
885.760803	43.259533
885.679138	45.653469
885.597595	112.909096
885.515930	38.429249
885.434326	57.632042
885.352722	38.413475
885.271057	62.409084
885.189392	93.594406
885.107727	31.191730
885.026123	69.567268
884.944519	26.382166
884.862854	64.742928
884.781189	57.537449
884.699524	64.716331
884.617920	62.306629
884.536316	9.583667
884.454651	55.094761
884.372986	76.637833
884.291321	67.044327
884.209656	55.060806
884.128052	52.656033
884.046326	86.146713
883.964722	40.672031
883.883057	57.407532
883.801331	62.178707
883.719727	71.729912
883.638062	47.810112
883.556396	88.430519
883.474670	83.633286
883.393066	43.002560
883.311401	62.102032
883.229675	66.865356
883.148071	57.301373
883.066345	35.805992
882.984680	50.118073
882.903015	66.810349
882.821350	59.639820
882.739624	59.627548
882.657959	54.846054
882.576233	90.596573
882.494568	21.452665
882.412903	30.980804
882.331177	85.775337
882.249512	50.025311
882.167786	88.121689
882.086121	59.529419
882.004333	57.136475
881.922668	76.166275
881.841003	42.834705
881.759277	73.755684
881.677551	28.544706
881.595825	42.808239
881.514160	40.421673
881.432434	92.712967
881.350769	26.144423
881.268982	40.396690
881.187317	28.509432
881.105591	78.384781
881.023865	71.244202
880.942139	40.363392
880.860413	68.841003
880.778687	80.693497
880.696960	99.659653
880.615234	68.798424
880.533508	37.949924
880.451782	97.226624
880.369995	80.610321
880.288269	66.371277
880.206543	59.247845
880.124817	56.866196
880.043091	66.330208
879.961304	11.842236
879.879578	89.982414
879.797852	89.963844
879.716064	42.605656
879.634338	40.230370
879.552551	59.150097
879.470825	56.772369
879.389099	68.585785
879.307312	68.571617
879.225586	40.188854
879.143799	77.997551
879.062073	66.166069
878.980286	68.514992
878.898499	30.707272
878.816772	14.169660
878.734985	73.194778
878.653259	44.852047
878.571472	61.363804
878.489685	21.236927
878.407898	75.493469
878.326172	80.195236
878.244385	77.820457
878.162598	54.227291
878.080811	66.002182
877.999023	58.918339
877.917297	80.112373
877.835449	58.893974
877.753662	42.394894
877.671936	58.869617
877.590088	65.920334
877.508301	49.430023
877.426514	56.479771
877.344727	35.292553
877.262939	58.808750
877.181091	61.148445
877.099304	96.406441
877.017456	39.965130
876.935669	35.256050
876.853943	68.147591
876.772095	11.747152
876.690247	61.072548
876.608459	63.408360
876.526672	56.351318
876.444885	61.034618
876.363037	77.450974
876.281250	37.544212
876.199463	60.996704
876.117554	79.748398
876.035706	16.415386
875.953979	67.992516
875.872131	58.602093
875.790283	67.964340
875.708496	63.264034
875.626648	65.593552
875.544800	86.659225
875.463013	77.274643
875.381104	74.917450
875.299255	60.857811
875.217407	44.463795
875.135559	63.172295
875.053772	58.480736
874.971924	60.807354
874.890015	56.118221
874.808228	112.213165
874.726379	91.154289
874.644531	37.388874
874.562683	58.407993
874.480835	44.380867
874.398987	67.725159
874.317078	37.357853
874.235291	81.703346
874.153381	60.681316
874.071533	70.002373
873.989624	46.658558
873.907837	58.311092
873.825928	74.622704
873.744080	74.607208
873.662231	72.260727
873.580322	65.254196
873.498474	46.600464
873.416626	81.533875
873.334656	25.619608
873.252808	60.542858
873.170898	51.217930
873.089111	60.517704
873.007202	51.196651
872.925293	55.839287
872.843445	69.784599
872.761536	88.375458
872.679626	65.105225
872.597717	53.468174
872.515808	37.187519
872.433960	60.417156
872.352051	32.525551
872.270203	62.714806
872.188232	104.502937
872.106384	51.079700
872.024475	51.069077
871.942566	25.529226
871.860657	62.649612
871.778748	95.114807
871.696777	95.095016
871.614868	32.464714
871.532959	67.234344
871.451111	62.584465
871.369141	13.904764
871.287231	41.705612
871.205322	81.077362
871.123413	57.900345
871.041443	64.834885
870.959534	37.040794
870.877625	30.089378
870.795715	34.711285
870.713745	69.408112
870.631836	34.696827
870.549927	74.004478
870.468018	60.116116
870.385986	71.661972
870.304138	55.468678
870.222168	85.496399
870.140259	39.273941
870.058228	62.363262
869.976318	62.350266
869.894409	78.498787
869.812439	83.099037
869.730408	66.926933
869.648499	48.454227
869.566528	43.830399
869.484619	29.982967
869.402649	96.847847
869.320740	85.300552
869.238708	59.928425
869.156738	82.960510
869.074829	27.647736
868.992859	99.050385
868.910889	57.575420
868.828918	82.891304
868.746948	36.832893
868.664978	46.031506
868.582947	55.226280
868.501038	55.214752
868.419067	46.002689
868.337036	36.794472
868.255066	55.180183
868.173096	71.259521
868.091125	41.367855
868.009155	89.611641
867.927185	57.431362
867.845154	80.387115
867.763123	61.999966
867.681152	45.916306
867.599182	84.927422
867.517212	89.499390
867.435242	50.476288
867.353210	100.931480
867.271240	48.161774
867.189209	68.788155
867.107178	84.820992
867.025208	55.007523
866.943176	68.745026
866.861206	57.275547
866.779175	71.006828
866.697144	48.091343
866.615173	68.687553
866.533142	64.094971
866.451111	125.874512
866.369141	38.898529
866.287048	70.917770
866.205078	27.446299
866.123108	75.461533
866.041016	50.297161
865.959045	38.857853
865.877014	47.990833
865.794922	79.967987
865.712952	47.970749
865.630920	52.528393
865.548889	79.917778
865.466797	61.637951
865.384827	68.472275
865.302795	34.228966
865.220764	57.036331
865.138672	38.776585
865.056641	86.658913
864.974609	66.120583
864.892578	41.031765
864.810547	82.046333
864.728455	109.372192
864.646362	79.733849
864.564331	102.493469
864.482300	61.483192
864.400269	38.703526
864.318176	54.628819
864.236084	77.374603
864.154053	36.403946
864.072021	70.517860
863.989929	34.114391
863.907837	106.869339
863.825806	90.933556
863.743774	47.730106
863.661621	65.899178
863.579590	45.438175
863.497498	45.428646
863.415405	43.148159
863.333313	34.057190
863.251282	81.720100
863.169189	36.312424
863.087097	95.300110
863.005005	72.594368
862.922913	52.166248
862.840820	13.605730
862.758728	86.151535
862.676697	29.466705
862.594604	67.985809
862.512451	38.517204
862.430420	31.713388
862.348328	56.619160
862.266174	43.021523
862.184082	31.693411
862.101990	54.320148
862.019897	56.571598
861.937744	54.297325
861.855713	38.452522
861.773621	74.627449
861.691467	72.350800
861.609375	81.377548
861.527222	67.800369
861.445129	63.267040
861.363037	81.326233
861.280884	56.464680
861.198792	79.033928
861.116699	99.336044
861.034546	47.400417
860.952393	69.957329
860.870300	67.686401
860.788208	78.950851
860.706055	69.913185
860.623901	105.975113
860.541809	85.663979
860.459656	67.615227
860.377502	31.547132
860.295349	49.563633
860.213257	13.514509
860.131104	65.306381
860.048950	49.532341
859.966858	45.019920
859.884644	54.012531
859.802551	72.001541
859.720398	67.487228
859.638184	83.216721
859.556091	58.464298
859.473938	60.700138
859.391785	47.201275
859.309631	47.191330
859.227478	31.454258
859.145325	20.216333
859.063171	58.390434
858.981018	76.340630
858.898804	62.855507
858.816650	71.819725
858.734497	74.048477
858.652344	103.197327
858.570129	80.746101
858.487976	53.819386
858.405823	44.840031
858.323608	73.970444
858.241455	62.749565
858.159241	47.052250
858.077087	60.482986
857.994873	33.594570
857.912720	60.457470
857.830505	29.103010
857.748352	49.240856
857.666199	49.230465
857.583923	69.355560
857.501770	69.340927
857.419556	29.072315
857.337402	51.424774
857.255188	87.180122
857.172974	60.342728
857.090820	26.813328
857.008606	64.785194
856.926453	55.837509
856.844177	35.728458
856.762024	55.813923
856.679810	42.409622
856.597595	91.496170
856.515381	64.703125
856.433105	35.690735
856.350952	53.524788
856.268677	66.891846
856.186523	84.711769
856.104309	62.406002
856.022095	60.164497
855.939880	82.430214
855.857605	66.821182
855.775452	80.168465
855.693176	64.566498
855.610962	95.716286
855.528687	48.960766
855.446472	86.775726
855.364258	64.511894
855.282043	44.481548
855.199829	66.708206
855.117554	57.801548
855.035278	48.898651
854.953064	71.110260
854.870789	44.434509
854.788635	66.637657
854.706360	68.844337
854.624084	35.525040
854.541870	35.517517
854.459595	84.336243
854.377380	53.253719
854.295105	53.242443
854.212830	48.795235
854.130615	24.392450
854.048340	97.549141
853.966064	28.815231
853.883789	26.593040
853.801575	39.881111
853.719299	28.796921
853.637024	66.440353
853.554749	50.926807
853.472473	53.129753
853.390198	46.478683
853.307922	64.171242
853.225708	73.006966
853.143372	30.966085
853.061157	59.707645
852.978821	64.116837
852.896606	37.577763
852.814270	50.829720
852.731995	64.076050
852.649719	53.017208
852.567444	57.423126
852.485107	77.283966
852.402893	59.606407
852.320557	81.665527
852.238281	41.927452
852.155945	52.949753
852.073669	63.967369
851.991394	0.000000
851.909058	35.277363
851.826782	6.613101
851.744446	83.748161
851.662170	77.120087
851.579834	55.074078
851.497559	101.314789
851.415222	52.848660
851.332886	39.628078
851.250610	74.837135
851.168335	41.811867
851.086060	52.803768
851.003723	59.391621
850.921387	83.570442
850.839050	46.173851
850.756775	54.957188
850.674438	65.934608
850.592102	50.539120
850.509766	94.466095
850.427429	70.285408
850.345093	46.114990
850.262756	74.646492
850.180420	54.875454
850.098145	46.085579
850.015808	72.404793
849.933472	57.034065
849.851135	76.760292
849.768738	26.312216
849.686401	54.805450
849.604065	74.519554
849.521729	76.694984
849.439392	94.205208
849.357056	35.045643
849.274719	52.557274
849.192322	59.114346
849.109985	67.857574
849.027649	54.712200
848.945251	70.016708
848.862915	72.189354
848.780518	19.683813
848.698242	32.799366
848.615906	13.116952
848.533447	72.127869
848.451111	28.407955
848.368774	32.771427
848.286377	80.818962
848.204041	74.250252
848.121643	41.483944
848.039307	39.292202
847.956909	78.567650
847.874512	41.457424
847.792175	54.537613
847.709778	65.431183
847.627380	54.514359
847.545044	65.403282
847.462585	76.287552
847.380249	74.092102
847.297913	67.540154
847.215454	69.704002
847.133118	58.800205
847.050659	23.950527
846.968323	58.775116
846.885925	43.527832
846.803467	97.916725
846.721130	56.562035
846.638672	104.399925
846.556274	10.872671
846.473938	45.655472
846.391541	43.472118
846.309082	65.194252
846.226746	56.489620
846.144287	58.649773
846.061829	58.637245
845.979431	52.110863
845.897034	36.903976
845.814697	93.325417
845.732239	39.058105
845.649841	58.574642
845.567383	78.082832
845.484985	112.762215
845.402527	93.225746
845.320129	80.200363
845.237732	67.180534
845.155273	67.166176
845.072815	86.647499
844.990417	51.977386
844.907959	77.949409
844.825562	80.097534
844.743164	60.601387
844.660706	67.080048
844.578247	80.046150
844.495850	77.866081
844.413391	64.874519
844.330933	23.782236
844.248535	60.523647
844.166016	90.766045
844.083557	58.337112
844.001160	71.285652
843.918701	79.909233
843.836243	95.006851
843.753784	64.763527
843.671326	75.541275
843.588867	86.314400
843.506409	49.620152
843.423950	58.237270
843.341492	64.694221
843.259033	60.368340
843.176575	60.355408
843.094116	71.117920
843.011658	73.257309
842.929199	68.933281
842.846680	40.920364
842.764221	34.451870
842.681763	109.791801
842.599304	86.092758
842.516846	68.859444
842.434326	81.753059
842.351868	77.433662
842.269348	73.116112
842.186890	36.550217
842.104431	51.589241
842.021973	45.130901
841.939453	40.823963
841.856934	55.852386
841.774414	57.988113
841.691956	49.386684
841.609497	38.642155
841.526978	25.755909
841.444519	40.771439
841.362000	55.780521
841.279480	55.768547
841.196960	21.444838
841.114441	77.184837
841.031982	90.029648
840.949524	47.148262
840.867004	51.423424
840.784485	64.265472
840.701904	47.117893
840.619446	55.672821
840.536926	59.942467
840.454407	53.508564
840.371948	96.294724
840.289368	10.697115
840.206848	53.474079
840.124329	47.047077
840.041870	70.555450
839.959290	64.127533
839.876770	34.194000
839.794250	42.733311
839.711731	40.587917
839.629211	46.986431
839.546631	44.841038
839.464111	83.258308
839.381592	78.971664
839.299072	83.222496
839.216553	78.937691
839.133972	57.590790
839.051392	49.048267
838.968933	61.830158
838.886353	31.974236
838.803833	49.016609
838.721252	42.613968
838.638733	76.688629
838.556152	85.191246
838.473633	21.293226
838.391113	74.510246
838.308533	72.365799
838.226013	46.814846
838.143372	78.717102
838.060852	80.827187
837.978271	55.290897
837.895752	42.522301
837.813171	72.272339
837.730591	72.256767
837.648010	76.490677
837.565491	46.734230
837.482910	91.324493
837.400330	25.480413
837.317749	72.178940
837.235168	84.898102
837.152649	42.439899
837.070068	65.767662
836.987427	61.511322
836.904907	63.618679
836.822266	38.162975
836.739746	57.232117
836.657166	67.816032
836.574524	95.345718
836.491943	97.443489
836.409363	42.357594
836.326782	52.935570
836.244202	48.690212
836.161560	42.330181
836.079041	55.017357
835.996460	42.311909
835.913818	61.339024
835.831238	48.637691
835.748596	40.170288
835.666016	69.754379
835.583374	80.305885
835.500793	52.821407
835.418213	29.573601
835.335632	65.470261
835.252991	61.233139
835.170410	67.553009
835.087769	56.985535
835.005127	71.744057
834.922546	69.618889
834.839905	73.822266
834.757263	31.631275
834.674683	44.274212
834.592041	61.127365
834.509460	84.295380
834.426819	63.207867
834.344177	42.129467
834.261536	88.452751
834.178894	80.011368
834.096313	42.102139
834.013672	75.767464
833.931030	71.542679
833.848389	63.112236
833.765747	35.755863
833.683105	58.879269
833.600464	44.149895
833.517822	88.280685
833.435181	46.232254
833.352539	56.727303
833.269836	81.921700
833.187195	67.203255
833.104553	73.487648
833.021973	65.074966
832.939270	62.962135
832.856628	46.162235
832.773987	35.663094
832.691345	46.142239
832.608643	8.387681
832.526001	27.254057
832.443359	64.976364
832.360718	60.771172
832.278015	64.948212
832.195374	75.407379
832.112732	60.731670
832.030029	43.968575
831.947388	52.332195
831.864685	46.042347
831.781982	33.478085
831.699280	66.941650
831.616638	43.920929
831.533997	56.457523
831.451355	50.173580
831.368652	41.802246
831.285950	100.303635
831.203247	52.230141
831.120605	91.905106
831.037903	62.648975
830.955200	58.459686
830.872498	89.757896
830.789856	73.042892
830.707153	87.632446
830.624451	64.667053
830.541748	52.139526
830.459045	62.553848
830.376343	56.286240
830.293640	75.032021
830.210938	37.507862
830.128296	31.249765
830.045593	35.408707
829.962830	35.401016
829.880188	95.770172
829.797424	60.363731
829.714722	31.215834
829.632019	62.418102
829.549316	39.522873
829.466614	31.195488
829.383850	70.694405
829.301147	89.388191
829.218445	58.193607
829.135681	27.012587
829.052979	103.871971
828.970215	66.463608
828.887512	45.683792
828.804810	53.978195
828.722107	58.117718
828.639343	60.180256
828.556580	35.270405
828.473877	60.154072
828.391174	72.583946
828.308411	62.201271
828.225647	55.968960
828.142944	70.464096
828.060181	41.440445
827.977478	55.932423
827.894775	45.564644
827.811951	66.261414
827.729248	49.685238
827.646484	45.534885
827.563782	95.188568
827.480957	78.616905
827.398254	70.326118
827.315491	35.155399
827.232788	53.755371
827.149963	57.877785
827.067200	64.065010
826.984436	57.852562
826.901672	64.037094
826.818970	72.284187
826.736206	72.268425
826.653442	72.252670
826.570618	49.533890
826.487915	39.205776
826.405151	68.079399
826.322388	86.627609
826.239563	68.049706
826.156738	45.356575
826.073975	55.652744
825.991211	68.005180
825.908508	53.568150
825.825684	55.616325
825.742920	65.901260
825.660095	49.415161
825.577332	53.521408
825.494568	107.019447
825.411804	47.325191
825.328979	55.543533
825.246216	82.268745
825.163452	80.194519
825.080566	47.283875
824.997803	76.048752
824.915039	71.922295
824.832214	63.688690
824.749451	36.972450
824.666626	47.232254
824.583801	69.806343
824.501038	78.001801
824.418213	49.253532
824.335388	65.657021
824.252625	65.642670
824.169800	65.628326
824.086975	38.958298
824.004150	61.499657
823.921326	75.832993
823.838562	71.718224
823.755676	81.945763
823.672913	67.590469
823.590088	47.098206
823.507263	71.655502
823.424438	47.077599
823.341614	49.113705
823.258789	45.011047
823.175964	57.274250
823.093140	51.126534
823.010315	65.427635
822.927490	73.589981
822.844666	83.792465
822.761841	42.908699
822.679016	81.712959
822.596130	28.593273
822.513306	69.425598
822.430420	75.534843
822.347595	63.272091
822.264832	55.095879
822.181946	73.445076
822.099121	63.230518
822.016235	65.255913
821.933411	67.280411
821.850586	69.304024
821.767700	65.213020
821.684814	77.423492
821.601990	63.147423
821.519104	79.426117
821.436279	61.083618
821.353455	52.927528
821.270569	36.634102
821.187744	50.869537
821.104858	38.652370
821.021973	32.542225
820.939148	95.571815
820.856201	54.890915
820.773376	44.716118
820.690491	30.481573
820.607666	54.854794
820.524780	36.561836
820.441895	50.769184
820.359009	48.727718
820.276123	62.926155
820.193298	77.118355
820.110413	58.840557
820.027527	101.426964
819.944641	54.758533
819.861755	77.050644
819.778809	93.251343
819.695923	70.936523
819.613098	68.894630
819.530151	68.879494
819.447266	58.737247
819.364380	80.999092
819.281494	22.269855
819.198608	44.529922
819.115723	66.780205
819.032776	86.997505
818.949951	91.023888
818.867004	52.580017
818.784119	58.634045
818.701172	38.406963
818.618347	36.377541
818.535400	48.492722
818.452454	36.361542
818.369568	60.589241
818.286682	40.383942
818.203735	90.843880
818.120789	46.421097
818.037903	96.857498
817.955017	20.174204
817.872131	64.543243
817.789124	66.545570
817.706238	60.482658
817.623291	38.297249
817.540405	90.684044
817.457458	104.767380
817.374512	58.415096
817.291565	88.610283
817.208679	74.496780
817.125732	98.636169
817.042786	90.564278
816.959900	84.508041
816.876953	30.174793
816.794006	56.313869
816.711060	74.398361
816.628174	62.320023
816.545166	94.464371
816.462219	72.339737
816.379333	88.395744
816.296326	74.316399
816.213379	60.243252
816.130432	38.145649
816.047485	62.223911
815.964539	44.149166
815.881592	62.196465
815.798645	52.153271
815.715637	72.196289
815.632751	60.150303
815.549744	32.073082
815.466797	32.066006
815.383789	58.106808
815.300842	64.103706
815.217896	64.089554
815.134949	56.065983
815.052002	76.072754
814.968994	62.045647
814.886047	58.029888
814.803040	42.012363
814.720093	120.008812
814.637146	41.993809
814.554138	51.980850
814.471191	75.955231
814.388184	75.938446
814.305176	85.911362
814.222229	75.904892
814.139221	75.888123
814.056274	55.905205
813.973267	41.919636
813.890259	55.880493
813.807251	75.821045
813.724304	53.860939
813.641357	65.815475
813.558350	67.794891
813.475342	69.773430
813.392334	77.730339
813.309326	69.742569
813.226318	87.656975
813.143311	89.629341
813.060303	71.687614
812.977356	75.653511
812.894287	73.646332
812.811279	45.770020
812.728271	73.613731
812.645264	53.706242
812.562256	63.637749
812.479248	35.788311
812.396301	45.719383
812.313232	45.709259
812.230225	77.489838
812.147156	29.797184
812.064148	81.427597
811.981140	93.323151
811.898132	67.495407
811.815125	59.541580
811.732056	83.339737
811.649048	71.418236
811.566040	69.419006
811.482971	87.250267
811.399963	81.283363
811.316895	75.319099
811.233948	57.467625
811.150879	75.285706
811.067871	37.634506
810.984802	57.429405
810.901733	77.215523
810.818726	47.506702
810.735657	61.349213
810.652649	81.121284
810.569580	69.234512
810.486572	77.129913
810.403503	69.203789
810.320435	61.281185
810.237427	67.196709
810.154358	79.037399
810.071289	55.313900
809.988220	61.226791
809.905212	61.213200
809.822144	57.251247
809.739075	63.159760
809.656006	80.905472
809.572937	65.104576
809.489868	51.283119
809.406799	41.411781
809.323792	78.862061
809.240723	82.786766
809.157654	39.413509
809.074524	49.255936
808.991516	33.486591
808.908447	96.498726
808.825378	64.974495
808.742249	39.369728
808.659180	62.977558
808.576111	59.028332
808.493042	74.752594
808.409912	49.168404
808.326843	51.123764
808.243774	58.975838
808.160706	41.273903
808.077637	66.809547
807.994568	72.688332
807.911438	76.600388
807.828369	41.237183
807.745239	86.382484
807.662170	45.144432
807.579041	88.306404
807.495972	62.781685
807.412842	84.344109
807.329773	56.870571
807.246704	84.306549
807.163574	54.885063
807.080505	47.033863
806.997375	56.819927
806.914246	90.108078
806.831177	62.669918
806.747986	46.991966
806.664917	25.448311
806.581848	82.199295
806.498657	45.003868
806.415588	60.643867
806.332458	64.541985
806.249390	70.393745
806.166199	82.107727
806.083069	60.589809
806.000000	74.254822
805.916870	54.701874
805.833740	91.800529
805.750610	46.866409
805.667480	48.808285
805.584351	74.172043
805.501282	103.427406
805.418091	52.677673
805.334961	58.517689
805.251831	81.906479
805.168701	60.441292
805.085571	62.377083
805.002380	83.800499
804.919312	93.523857
804.836121	70.127228
804.752991	52.583679
804.669861	91.514114
804.586731	72.026932
804.503601	40.871021
804.420410	64.211540
804.337280	87.541634
804.254150	87.522079
804.170959	73.891022
804.087769	58.321980
804.004639	64.139839
803.921509	91.330261
803.838318	56.340118
803.755188	58.269855
803.672058	40.779778
803.588867	62.126724
803.505676	102.874374
803.422546	62.098942
803.339355	60.144894
803.256226	77.588959
803.173035	89.207344
803.089905	77.554253
803.006714	67.844788
802.923523	75.581558
802.840332	91.065086
802.757141	71.673492
802.673950	75.530830
802.590820	83.258942
802.507629	73.561195
802.424438	100.640160
802.341248	81.268082
802.258118	38.690422
802.174927	92.836212
802.091675	65.744255
802.008545	83.128525
801.925293	94.706635
801.842163	48.308887
801.758911	75.344986
801.675781	48.287243
801.592529	25.103741
801.509338	50.196228
801.426147	55.975552
801.342957	90.698669
801.259766	55.950462
801.176514	67.511284
801.093384	55.925377
801.010132	104.113556
800.926941	46.262314
800.843750	50.106270
800.760559	52.021763
800.677307	38.525993
800.594116	44.294956
800.510864	77.017418
800.427673	57.750107
800.344482	69.284576
800.261292	51.951771
800.178040	86.566849
800.094849	38.465519
800.011597	59.608173
799.928406	53.827553
799.845154	96.099045
799.761963	55.724934
799.678711	71.081360
799.595459	74.906769
799.512207	61.448162
799.429016	74.873123
799.345764	65.259346
799.262573	76.758446
799.179260	82.496788
799.096069	65.215363
799.012817	42.188694
798.929626	72.855003
798.846375	51.753761
798.763123	57.491249
798.679871	80.469658
798.596680	57.465401
798.513367	76.603310
798.430176	65.098167
798.346863	76.568855
798.263672	107.172287
798.180420	86.101219
798.097168	82.255989
798.013855	57.374989
797.930603	70.746559
797.847351	70.730644
797.764099	82.181976
797.680847	68.788033
797.597595	66.862198
797.514282	72.576904
797.431091	78.289024
797.347839	82.089516
797.264526	80.162407
797.181274	74.419754
797.098022	62.956379
797.014771	70.571556
796.931458	78.183304
796.848145	89.604568
796.764893	83.866226
796.681641	85.752953
796.598328	74.302475
796.515076	72.380974
796.431824	97.120987
796.348511	70.444443
796.265198	41.876442
796.181946	51.382229
796.098694	70.396805
796.015381	85.598434
795.932129	51.347477
795.848755	77.954506
795.765503	41.819813
795.682251	47.511795
795.598938	76.001724
795.515625	51.289589
795.432373	70.269875
795.348999	43.671417
795.265747	74.034821
795.182434	94.895012
795.099121	45.539322
795.015808	91.058083
794.932556	81.554451
794.849182	56.885609
794.765930	106.162491
794.682556	51.173927
794.599243	94.745125
794.515991	87.145828
794.432617	58.715443
794.349365	58.702179
794.265991	51.116154
794.182739	105.994728
794.099426	75.693413
794.016113	62.432953
793.932739	51.069962
793.849487	83.206306
793.766174	90.750000
793.682800	69.937309
793.599487	73.701035
793.516174	81.241737
793.432800	69.889877
793.349487	69.874069
793.266174	92.514992
793.182861	71.730095
793.099487	94.360344
793.016113	67.924080
792.932800	60.363297
792.849487	69.779266
792.766113	52.793980
792.682800	65.977539
792.599487	81.039772
792.516113	79.137207
792.432739	82.886871
792.349426	45.200783
792.266052	33.892910
792.182678	71.535492
792.099365	86.575989
792.016052	79.029732
791.932678	77.130600
791.849304	69.589890
791.765930	75.215271
791.682617	80.838089
791.599304	92.096947
791.515869	48.856693
791.432556	50.724297
791.349182	86.399582
791.265808	71.357384
791.182434	88.237808
791.099060	90.094772
791.015747	80.691597
790.932312	60.035942
790.848938	56.270931
790.765564	69.385071
790.682251	58.120251
790.598877	73.102432
790.515503	74.959846
790.432129	84.310684
790.348755	76.798973
790.265381	78.654259
790.182007	39.318203
790.098572	82.362297
790.015198	39.300354
789.931824	76.711838
789.848389	78.565010
789.765015	71.066490
789.681641	82.268822
789.598267	91.596741
789.514893	74.755867
789.431458	74.738884
789.348083	72.853851
789.264709	87.778282
789.181335	65.351952
789.097900	112.006454
789.014526	65.322250
788.931091	87.698509
788.847656	63.427052
788.764282	72.738022
788.680908	93.232666
788.597473	76.433403
788.514038	80.143631
788.430664	89.442307
788.347229	68.929428
788.263855	104.301888
788.180420	76.346512
788.097046	46.542156
788.013550	59.560406
787.930176	70.711884
787.846802	72.556206
787.763306	74.399681
787.679932	63.225334
787.596497	87.379829
787.513062	70.631439
787.429688	68.757057
787.346252	70.599274
787.262817	85.442810
787.179382	100.279587
787.095947	83.547287
787.012512	61.254051
786.929077	111.345627
786.845642	74.213509
786.762207	102.020317
786.678772	76.034180
786.595337	81.579056
786.511902	59.316696
786.428467	100.074104
786.344971	59.289654
786.261536	101.880859
786.178101	61.114574
786.094666	83.319054
786.011230	101.811172
785.927795	86.982430
785.844299	46.256695
785.760925	98.041817
785.677429	75.826370
785.593994	90.601074
785.510498	70.246025
785.427063	77.622627
785.343567	84.995850
785.260193	64.655991
785.176636	99.732185
785.093201	94.170006
785.009766	99.686646
784.926270	62.751335
784.842834	71.963036
784.759338	90.394440
784.675903	66.397072
784.592468	77.445557
784.508972	86.645462
784.425476	55.292976
784.342041	82.920509
784.258545	58.952221
784.175049	92.091789
784.091553	82.863670
784.008118	84.685722
783.924622	66.260628
783.841187	71.765930
783.757690	69.909790
783.674194	77.251045
783.590698	117.688957
783.507263	104.792755
783.423706	95.578537
783.340271	69.829872
783.256714	75.325523
783.173279	115.717606
783.089722	91.818352
783.006287	64.258141
782.922729	84.434219
782.839233	86.250000
782.755798	86.230255
782.672241	80.707710
782.588745	66.018463
782.505249	75.170479
782.421814	84.318291
782.338257	109.955193
782.254761	93.440506
782.171265	95.250847
782.087769	117.204948
782.004272	102.530830
781.920715	91.524406
781.837219	51.241920
781.753662	67.697021
781.670227	82.315338
781.586670	80.467659
781.503174	85.934387
781.419617	96.882515
781.336060	78.584770
781.252563	71.258209
781.169067	93.162445
781.085510	60.267754
781.002014	80.338570
780.918518	67.541939
780.834961	107.677292
780.751404	96.704865
780.667908	51.077637
780.584351	74.775093
780.500854	100.285027
780.417297	69.271927
780.333740	85.658768
780.250244	71.062233
780.166687	111.123100
780.083130	71.029602
779.999573	103.788651
779.916077	92.842201
779.832520	65.520615
779.748962	90.979950
779.665405	101.874138
779.581909	87.300621
779.498352	114.555733
779.414795	98.168068
779.331238	107.233047
779.247681	50.878563
779.164124	79.933647
779.080566	92.629059
778.997009	78.081055
778.913452	68.985992
778.829895	94.380180
778.746338	85.285538
778.662781	85.265923
778.579224	96.128815
778.495667	99.733368
778.412109	52.574585
778.328552	126.874969
778.244934	81.543709
778.161377	90.583267
778.077759	79.694923
777.994263	79.676582
777.910706	90.520721
777.827087	92.309883
777.743530	94.098206
777.659912	115.786507
777.576355	74.158646
777.492737	72.333237
777.409180	92.203629
777.325623	95.797379
777.242065	99.389473
777.158447	77.686592
777.074829	115.599907
776.991272	75.844955
776.907715	83.049141
776.824036	88.444992
776.740479	73.987938
776.656921	68.558372
776.573303	75.757568
776.489685	84.756783
776.406128	99.160591
776.322510	86.520195
776.238892	88.302322
776.155273	73.868568
776.071716	95.466606
775.988159	108.050468
775.904541	86.420425
775.820862	111.600624
775.737305	66.584999
775.653687	98.954857
775.570068	89.938194
775.486450	91.715782
775.402832	102.482201
775.319214	71.900726
775.235657	115.014595
775.152039	98.817841
775.068420	50.295643
774.984741	89.792900
774.901123	84.385826
774.817505	87.956383
774.733948	125.622940
774.650269	114.828720
774.566650	111.214615
774.483032	82.494995
774.399414	96.819565
774.315735	102.174797
774.232178	93.190544
774.148499	103.919266
774.064880	85.982262
773.981201	66.262665
773.897644	94.894836
773.814026	76.972336
773.730347	59.058128
773.646667	100.196671
773.563049	84.074173
773.479431	100.150299
773.395813	82.247276
773.312134	98.316376
773.228455	87.570679
773.144897	105.417831
773.061218	110.752411
772.977539	80.366203
772.893860	73.205582
772.810242	101.750046
772.726624	74.956352
772.642944	90.997345
772.559326	57.083145
772.475586	105.222664
772.391968	99.849213
772.308350	53.478256
772.224670	94.456352
772.140991	94.434464
772.057312	96.193939
771.973694	113.981201
771.890015	83.685539
771.806335	108.587959
771.722717	112.122215
771.639038	97.861771
771.555359	71.155693
771.471619	92.480942
771.388000	110.240158
771.304260	99.548653
771.220642	110.189011
771.136963	65.742699
771.053284	92.373695
770.969604	83.472237
770.885925	85.228447
770.802246	117.161911
770.718506	86.963646
770.634888	111.784447
770.551147	86.923271
770.467529	90.450142
770.383789	81.563538
770.300110	111.680634
770.216431	69.119568
770.132751	122.260056
770.049072	106.288391
769.965332	108.034752
769.881714	102.697701
769.797913	132.767883
769.714294	95.570656
769.630554	102.626099
769.546875	95.526222
769.463135	88.429642
769.379456	104.322708
769.295776	65.407501
769.212036	120.180428
769.128357	113.084679
769.044617	79.494164
768.960938	95.370804
768.877258	116.537201
768.793518	98.857040
768.709778	109.423393
768.626038	95.282066
768.542358	111.136536
768.458618	98.765030
768.374939	102.268539
768.291199	82.853485
768.207520	81.071762
768.123779	119.817307
768.040039	110.981354
767.956299	105.671913
767.872559	103.886505
767.788879	102.101921
767.705078	124.957718
767.621399	96.775673
767.537659	61.570168
767.453979	116.076691
767.370239	87.916389
767.286499	59.769207
767.202759	105.450478
767.119019	117.725586
767.035278	94.861183
766.951538	96.595337
766.867798	128.178452
766.784058	84.262062
766.700317	82.487358
766.616516	85.977394
766.532837	108.762344
766.449036	82.429634
766.365295	103.451347
766.281555	106.933212
766.197815	126.186790
766.114075	108.635483
766.030334	89.340584
765.946533	98.076561
765.862793	147.080490
765.779053	105.032951
765.695313	108.508705
765.611511	101.484436
765.527771	110.207344
765.444031	132.917480
765.360229	94.419304
765.276489	97.893433
765.192688	97.870552
765.108948	125.804161
765.025208	101.318550
764.941406	113.520111
764.857666	118.731735
764.773865	109.975746
764.690063	102.969070
764.606323	115.158806
764.522583	106.409760
764.438782	113.360931
764.354980	73.231468
764.271240	137.712677
764.187439	95.853477
764.103638	83.634369
764.019836	80.130852
763.936096	114.943443
763.852295	114.916534
763.768494	106.185875
763.684692	118.343430
763.600952	116.575783
763.517151	104.371780
763.433350	95.651726
763.349548	86.935745
763.265747	116.466614
763.181946	104.274033
763.098206	88.612160
763.014343	145.915253
762.930603	92.043999
762.846802	98.967522
762.763000	86.793266
762.679199	121.482094
762.595337	112.778358
762.511536	117.955849
762.427734	117.928192
762.343933	107.497551
762.260132	83.204399
762.176331	138.641464
762.092529	121.282829
762.008667	100.467918
761.924866	93.517151
761.841064	109.077744
761.757263	126.362015
761.673401	95.181915
761.589661	124.572533
761.505798	138.381439
761.421936	108.949799
761.338196	89.905708
761.254333	120.998497
761.170471	101.960503
761.086731	143.402267
761.002869	115.731277
760.919006	110.523315
760.835205	98.411705
760.751343	144.993698
760.667542	139.782501
760.583679	100.067657
760.499878	119.018028
760.416016	106.918602
760.332214	115.513908
760.248352	148.236725
760.164551	99.950104
760.080688	118.878204
759.996826	125.740120
759.912964	120.544357
759.829163	141.175903
759.745300	99.832634
759.661438	118.738472
759.577576	115.269653
759.493774	130.722870
759.409912	125.533211
759.326050	128.942123
759.242188	142.662369
759.158325	106.541985
759.074524	108.234917
758.990662	116.797485
758.906799	113.335579
758.822937	97.857674
758.739075	113.282204
758.655212	113.255524
758.571350	123.522377
758.487488	130.354019
758.403625	116.605064
758.319702	109.720085
758.235901	106.266289
758.152039	104.527672
758.068176	113.068863
757.984253	143.871902
757.900391	114.727921
757.816528	142.092117
757.732666	124.943123
757.648804	157.425430
757.564880	100.933807
757.481018	123.144409
757.397095	148.764389
757.313293	155.567429
757.229370	99.129471
757.145508	100.814812
757.061584	131.540817
756.977722	148.588974
756.893860	112.696060
756.809998	145.104614
756.726074	133.123383
756.642151	109.203651
756.558289	124.531006
756.474426	139.851105
756.390503	97.190620
756.306580	124.442795
756.222656	122.709106
756.138794	117.568451
756.054871	117.540672
755.971008	103.888214
755.887085	108.971710
755.803223	100.434555
755.719299	112.323967
755.635376	139.521027
755.551514	91.857979
755.467590	115.645668
755.383667	127.520210
755.299744	120.690582
755.215881	122.361504
755.131958	147.818512
755.048035	137.591583
754.964111	147.748581
754.880249	122.245766
754.796265	118.821922
754.712341	127.279076
754.628418	122.158997
754.544556	130.611343
754.460571	120.405319
754.376648	135.635849
754.292725	94.922615
754.208801	140.655563
754.124878	103.348885
754.040955	99.936722
753.957031	140.555649
753.873108	115.126747
753.789185	130.333221
753.705261	137.071304
753.621338	169.183731
753.537354	145.463531
753.453491	155.575256
753.369507	158.919662
753.285583	108.174965
753.201660	158.844315
753.117737	118.260277
753.033752	106.409012
752.949829	124.958717
752.865845	140.123154
752.781921	131.650772
752.697998	150.181274
752.614014	119.779106
752.530029	99.511131
752.446106	143.329483
752.362183	131.494659
752.278259	166.857452
752.194214	146.597504
752.110291	129.716415
752.026367	151.580597
751.942383	138.073975
751.858459	151.508621
751.774475	146.423553
751.690491	143.023514
751.606506	121.120552
751.522583	146.319229
751.438660	131.151596
751.354675	129.439392
751.270691	100.837898
751.186707	139.459274
751.102722	117.588303
751.018799	122.598648
750.934814	136.001785
750.850830	97.360840
750.766907	132.580643
750.682861	132.549118
750.598938	130.840149
750.514893	124.100876
750.430908	115.688156
750.346985	119.013115
750.263000	134.067383
750.179016	185.974228
750.095032	130.653488
750.011047	135.646332
749.927063	133.939804
749.843079	160.689499
749.759033	127.182236
749.675049	137.190262
749.591125	148.866180
749.507141	112.041107
749.423157	135.420425
749.339111	138.731079
749.255127	137.026978
749.171143	142.006317
749.087097	138.631943
749.003113	143.608521
748.919128	135.226944
748.835144	153.554489
748.751160	156.855240
748.667114	170.164047
748.583130	170.123474
748.499084	118.391045
748.415100	171.709442
748.331055	160.001694
748.247070	149.965805
748.163025	138.268814
748.079041	164.883698
747.995056	153.188705
747.911011	154.816849
747.827026	138.136902
747.742981	138.103928
747.658936	161.360046
747.574951	133.048691
747.490906	172.921997
747.406921	123.011276
747.322876	179.487106
747.238892	156.182953
747.154846	157.806778
747.070862	152.786896
746.986816	134.486771
746.902771	147.734116
746.818726	131.103439
746.734741	155.959229
746.650696	121.088326
746.566650	159.201385
746.482605	137.609955
746.398560	192.276382
746.314575	144.172806
746.230469	140.824814
746.146484	145.760239
746.062439	163.941055
745.978394	145.690521
745.894348	163.862640
745.810303	162.168655
745.726257	165.438629
745.642212	155.475098
745.558167	142.209137
745.474121	142.175110
745.390076	171.891541
745.306030	193.331680
745.221924	158.593155
745.137878	143.690628
745.053833	155.214767
744.969788	160.130081
744.885742	141.936996
744.801697	163.353455
744.717651	194.657486
744.633606	166.573685
744.549500	146.747589
744.465454	153.306244
744.381409	156.565628
744.297302	153.232773
744.213257	184.494156
744.129150	172.921814
744.045105	167.940918
743.960999	194.238007
743.876953	181.025909
743.792908	151.367172
743.708862	190.808502
743.624756	166.095139
743.540710	190.716965
743.456604	143.003403
743.372498	136.395798
743.288452	172.507507
743.204407	162.610901
743.120300	175.708984
743.036194	159.249344
742.952148	170.700577
742.868042	167.377686
742.783936	150.931854
742.699829	191.899857
742.615784	167.257126
742.531677	157.380661
742.447632	155.703873
742.363464	167.136627
742.279419	144.161667
742.195313	193.261230
742.111206	180.115479
742.027100	188.257294
741.942993	162.026016
741.858948	176.713165
741.774841	148.861404
741.690735	199.524460
741.606628	191.301208
741.522522	178.177933
741.438416	174.866547
741.354309	155.218002
741.270203	179.682861
741.186157	163.308762
741.101990	187.759888
741.017883	223.625336
740.933777	172.982346
740.849609	189.255875
740.765564	231.619522
740.681458	179.380386
740.597351	174.446182
740.513184	161.364609
740.429077	162.955307
740.344971	177.578506
740.260864	197.080948
740.176697	174.236221
740.092651	190.474075
740.008484	195.310959
739.924316	164.347107
739.840210	177.321960
739.756104	159.388657
739.671936	186.992630
739.587891	170.691238
739.503723	173.900574
739.419556	188.482269
739.335449	146.200974
739.251343	157.534164
739.167175	178.603897
739.083069	178.560822
738.998901	172.026184
738.914795	191.454651
738.830627	231.961090
738.746460	188.118835
738.662354	196.180054
738.578247	147.504761
738.494080	189.603195
738.409912	149.053696
738.325745	192.751175
738.241638	179.749695
738.157471	171.611404
738.073364	168.332794
737.989197	203.892395
737.905029	220.021164
737.820923	171.445648
737.736694	205.361664
737.652588	181.062592
737.568420	190.716278
737.484253	193.901871
737.400085	205.163223
737.315918	200.268417
737.231750	156.623703
737.147644	216.314453
737.063416	192.053696
736.979309	201.688293
736.895142	203.252625
736.810913	211.267090
736.726807	190.255615
736.642578	188.597626
736.558411	136.982224
736.474243	191.728699
736.390076	199.736176
736.305908	196.467056
736.221741	212.519455
736.137512	186.714310
736.053406	185.059891
735.969177	199.494507
735.885010	176.928085
735.800842	220.302521
735.716614	231.502762
735.632507	213.766724
735.548340	204.073654
735.464111	159.042496
735.379944	202.368668
735.295776	189.473938
735.211548	211.902512
735.127380	208.641281
735.043213	215.008881
734.958984	187.686111
734.874756	184.433075
734.790588	206.835632
734.706421	179.534668
734.622192	197.119705
734.538025	195.469681
734.453796	211.440475
734.369629	195.374847
734.285400	195.327438
734.201233	193.679382
734.117004	217.636383
734.032837	198.385010
733.948608	209.533279
733.864380	215.878815
733.780151	179.055969
733.695984	202.987381
733.611755	218.917465
733.527588	217.266739
733.443359	201.242340
733.359131	207.580551
733.274902	174.006027
733.190674	196.307709
733.106506	205.833664
733.022278	188.236191
732.938049	170.647263
732.853821	212.061386
732.769592	210.415771
732.685364	197.615234
732.601135	199.160477
732.516907	235.748642
732.432678	221.358734
732.348450	210.160034
732.264221	202.150238
732.179993	229.153946
732.095764	211.597641
732.011597	217.908432
731.927307	214.675034
731.843079	211.443176
731.758850	211.391708
731.674622	200.217072
731.590393	239.884262
731.506165	214.413849
731.421936	228.652405
731.337646	201.609604
731.253418	206.321762
731.169189	238.005585
731.084961	199.875977
731.000732	220.444382
730.916443	248.930450
730.832214	218.751785
730.747986	223.452789
730.663696	247.164093
730.579468	190.079880
730.495178	202.702438
730.410950	205.819458
730.326721	220.014832
730.242432	226.291000
730.158203	193.012360
730.073914	251.487534
729.989685	213.475052
729.905396	222.908432
729.821167	200.726685
729.736877	222.799652
729.652649	224.325027
729.568359	225.849640
729.484131	236.847382
729.399841	209.953400
729.315613	244.622787
729.231323	249.296539
729.147034	228.728912
729.062744	223.941879
728.978455	214.427155
728.894226	211.222198
728.809937	228.505493
728.725647	203.241425
728.641418	222.093307
728.557129	217.314789
728.472839	247.174515
728.388611	225.078445
728.304321	220.302643
728.220032	226.541595
728.135742	220.194916
728.051453	257.879517
727.967163	199.650543
727.882874	220.033386
727.798584	212.123138
727.714294	259.198181
727.630005	221.442429
727.545715	226.098618
727.461426	232.322266
727.377136	236.973480
727.292847	251.036255
727.208557	208.622803
727.124268	272.868256
727.039978	243.012787
726.955688	231.981186
726.871338	208.418518
726.787048	216.200836
726.702759	217.714157
726.618469	231.753952
726.534180	230.131653
726.449829	248.856903
726.365540	239.407394
726.281250	234.655594
726.196960	214.266235
726.112671	229.849747
726.028320	237.609497
725.944031	251.616760
725.859680	218.743530
725.775391	273.362335
725.691040	234.253098
725.606750	249.808685
725.522461	210.724365
725.438110	218.475342
725.353760	296.429504
725.269470	251.123337
725.185120	237.027191
725.100830	229.173981
725.016541	202.621109
724.932190	222.828491
724.847900	236.794510
724.763550	247.638687
724.679199	227.335648
724.594849	213.269409
724.510559	255.237885
724.426208	280.070313
724.341858	247.334656
724.257568	265.936066
724.173218	240.993912
724.088867	259.587677
724.004578	237.767380
723.920227	245.477188
723.835876	260.949524
723.751526	242.250702
723.667175	242.191132
723.582886	235.923050
723.498535	240.520248
723.414185	265.282867
723.329834	260.564667
723.245483	244.994568
723.161133	254.235580
723.076782	251.073334
722.992432	233.967545
722.908081	247.851608
722.823730	255.534042
722.739380	243.084641
722.655029	258.504089
722.570679	258.440430
722.486328	245.999435
722.401978	228.924194
722.317627	244.331848
722.233276	262.823914
722.148926	234.937607
722.064514	227.153412
721.980164	219.373016
721.895813	257.931427
721.811462	259.411987
721.727051	259.348022
721.642761	265.457520
721.558350	266.935028
721.473999	252.985825
721.389587	252.923431
721.305237	282.155914
721.220886	228.135376
721.136536	257.359528
721.052124	274.243652
720.967712	240.289063
720.883362	263.328766
720.799011	243.249573
720.714661	237.032837
720.630249	253.901047
720.545837	256.915192
720.461426	247.623535
720.377136	241.411774
720.292664	238.277588
720.208313	261.272156
720.123901	239.696396
720.039551	278.040588
719.955139	293.329437
719.870789	276.367798
719.786377	237.924576
719.702026	274.696594
719.617615	228.601532
719.533203	260.756073
719.448853	242.289825
719.364441	251.428513
719.280029	263.628113
719.195618	237.513092
719.111206	280.349304
719.026855	268.027283
718.942444	269.492157
718.858032	266.363831
718.773621	280.071960
718.689209	252.461395
718.604797	249.339523
718.520386	269.158844
718.436035	267.563293
718.351624	259.854248
718.267212	258.261749
718.182739	271.947968
718.098328	273.408020
718.013977	284.029572
717.929565	280.905884
717.845093	265.573456
717.760742	294.499847
717.676331	286.799225
717.591858	266.901215
717.507446	300.380035
717.423035	268.293304
717.338623	249.938599
717.254211	289.491211
717.169739	271.140289
717.085327	254.321350
717.000916	272.528320
716.916504	289.204132
716.832092	284.567139
716.747620	284.496521
716.663208	282.904938
716.578735	276.752258
716.494324	250.839493
716.409912	296.373108
716.325439	244.637039
716.241028	270.401123
716.156555	284.002563
716.072144	242.936508
715.987732	255.019974
715.903259	285.308624
715.818848	295.858307
715.734436	263.931061
715.649963	277.513702
715.565491	306.250458
715.481079	256.155762
715.396606	290.944885
715.312195	278.752869
715.227722	308.975281
715.143250	269.529053
715.058838	254.323700
714.974426	255.773911
714.889954	279.919556
714.805481	273.799133
714.721069	264.657074
714.636597	284.246582
714.552124	300.803162
714.467651	241.791595
714.383179	267.415375
714.298767	258.286163
714.214294	291.443390
714.129822	301.938690
714.045349	250.546722
713.960876	301.788361
713.876465	301.713196
713.791992	266.949677
713.707520	275.930084
713.622986	277.368774
713.538574	266.750214
713.454102	281.750641
713.369629	283.186737
713.285156	281.610229
713.200684	260.462189
713.116211	263.407623
713.031738	288.923737
712.947266	273.807343
712.862793	264.714691
712.778320	305.248199
712.693848	266.085999
712.609314	255.499069
712.524902	286.989105
712.440430	310.952484
712.355896	297.358582
712.271423	273.261414
712.186890	292.707001
712.102478	286.631195
712.017944	289.560272
711.933472	283.488220
711.848938	290.915253
711.764526	274.351532
711.679993	284.774719
711.595520	287.700470
711.510986	301.111206
711.426514	278.570618
711.341980	247.057343
711.257507	293.400848
711.173035	309.789795
711.088562	320.185730
711.004028	282.710175
710.919495	276.657715
710.835022	287.054047
710.750488	283.992889
710.666016	283.921875
710.581543	307.754089
710.497009	291.247742
710.412476	274.749634
710.328003	295.580536
710.243469	264.164978
710.158936	293.940552
710.074463	264.032776
709.989990	280.371399
709.905457	293.719910
709.820923	280.231049
709.736389	296.553284
709.651917	290.519653
709.567383	333.641571
709.482849	284.417755
709.398315	281.369080
709.313782	297.670471
709.229309	299.083862
709.144775	300.496521
709.060242	325.704193
708.975708	306.293396
708.891174	306.216614
708.806641	271.959198
708.722107	297.148651
708.637634	300.044891
708.553101	286.604645
708.468567	317.709930
708.384033	293.882172
708.299500	308.647278
708.214966	299.668793
708.130432	290.694794
708.045837	301.001190
707.961304	306.855225
707.876831	309.742249
707.792236	282.994843
707.707703	284.405090
707.623169	275.448242
707.538635	294.626007
707.454102	315.274292
707.369568	322.594055
707.284973	323.992432
707.200439	322.432007
707.115906	304.606903
707.031372	307.487000
706.946777	305.931793
706.862305	308.810028
706.777710	336.798981
706.693176	287.979370
706.608582	293.812744
706.524048	304.071411
706.439514	286.286499
706.354919	327.523804
706.270386	330.391357
706.185791	287.545135
706.101257	309.586090
706.016724	293.295868
705.932129	285.854675
705.847595	291.675171
705.763000	335.783875
705.678467	285.638916
705.593933	320.894897
705.509338	292.853241
705.424744	276.595703
705.340149	314.769043
705.255615	301.455139
705.171021	301.379211
705.086487	332.168518
705.001892	310.043823
704.917358	323.186981
704.832764	309.887604
704.748169	309.809509
704.663574	314.135193
704.579041	284.704956
704.494446	312.509644
704.409851	305.096802
704.325256	331.415833
704.240723	313.739380
704.156128	322.454468
704.071533	344.353119
703.986938	306.177216
703.902344	319.281311
703.817749	297.237396
703.733154	301.553955
703.648560	311.722260
703.563965	351.147705
703.479370	317.415894
703.394836	283.701080
703.310242	280.705444
703.225586	317.175537
703.140991	374.084930
703.056458	303.867249
702.971802	302.329956
702.887207	309.554382
702.802612	310.935974
702.718018	302.100861
702.633423	341.419006
702.548828	310.700317
702.464233	332.496552
702.379578	310.543243
702.295044	300.261688
702.210388	288.528046
702.125793	342.358307
702.041199	334.989349
701.956604	337.816833
701.872009	315.895294
701.787354	275.065002
701.702759	327.375488
701.618103	305.473145
701.533508	324.301300
701.448914	314.041931
701.364319	321.230072
701.279663	322.601929
701.195068	325.425842
701.110474	328.248291
701.025818	333.973389
700.941162	323.726959
700.856567	346.866150
700.771973	329.366791
700.687317	306.073944
700.602722	336.451019
700.518066	332.016205
700.433411	284.099060
700.348816	328.949677
700.264160	279.608795
700.179565	309.953949
700.094910	331.595581
700.010315	340.197388
699.925659	337.216553
699.841003	329.896454
699.756409	368.869537
699.671753	310.928741
699.587097	302.174988
699.502502	331.007233
699.417847	322.252747
699.333191	323.615662
699.248535	343.754364
699.163879	270.024170
699.079285	327.700104
698.994629	344.935852
698.909973	341.962494
698.825317	318.795441
698.740662	341.788818
698.656006	324.400604
698.571350	309.904053
698.486755	312.707397
698.402100	351.526337
698.317383	311.108154
698.232788	341.268036
698.148071	332.543762
698.063477	343.972961
697.978760	320.863892
697.894165	299.205017
697.809509	336.520020
697.724854	347.936462
697.640137	317.662811
697.555542	330.515198
697.470886	308.881256
697.386169	326.038147
697.301514	300.108490
697.216858	341.663361
697.132141	312.872498
697.047485	365.881531
696.962891	338.533569
696.878174	326.974579
696.793518	309.686493
696.708862	366.942352
696.624207	332.456818
696.539490	336.670044
696.454773	350.906982
696.370117	323.611298
696.285461	347.865082
696.200745	340.620544
696.116089	343.395325
696.031433	327.572845
695.946716	323.199097
695.862061	331.695007
695.777405	327.322357
695.692688	362.963623
695.607971	345.727539
695.523315	328.500214
695.438599	359.830139
695.353943	344.035461
695.269226	342.520508
695.184570	318.177399
695.099854	320.949066
695.015198	329.423615
694.930542	364.982300
694.845825	367.739807
694.761108	299.246674
694.676392	321.964172
694.591736	351.791321
694.507019	350.277557
694.422302	348.764557
694.337646	355.791260
694.252930	355.700348
694.168274	335.695313
694.083496	322.810852
693.998840	341.210571
693.914124	378.078369
693.829407	325.405304
693.744690	342.369537
693.660034	332.340210
693.575317	354.973511
693.490601	337.848328
693.405884	360.468597
693.321167	360.376373
693.236450	350.355072
693.151733	378.626984
693.067017	375.694641
692.982300	337.329956
692.897583	357.081451
692.812866	344.240387
692.728149	344.152252
692.643433	348.311829
692.558716	366.624634
692.473999	359.454834
692.389282	373.510895
692.304565	367.757416
692.219849	339.381378
692.135132	366.155243
692.050354	339.207458
691.965698	368.793579
691.880920	347.509430
691.796204	377.078186
691.711487	374.157654
691.626709	351.476868
691.541992	397.956055
691.457275	337.188293
691.372498	328.639008
691.287781	362.397247
691.203064	355.255524
691.118347	359.392517
691.033630	331.119873
690.948853	376.111969
690.864136	323.908417
690.779358	378.734772
690.694641	346.263336
690.609863	374.318665
690.525146	339.051270
690.440430	331.931732
690.355652	375.436462
690.270935	361.282349
690.186157	366.811127
690.101379	361.096710
690.016663	356.789856
689.931946	369.337067
689.847168	355.202515
689.762451	353.707581
689.677673	336.777771
689.592957	325.468140
689.508179	366.057495
689.423401	358.952545
689.338623	385.494385
689.253906	358.767914
689.169128	397.905762
689.084412	365.586914
688.999634	352.889618
688.914856	372.398743
688.830078	337.312012
688.745361	370.807770
688.660583	372.111206
688.575806	352.435638
688.491028	366.326843
688.406250	369.028168
688.321533	370.330566
688.236755	391.191895
688.151978	379.917084
688.067139	367.251648
687.982422	371.345123
687.897644	360.084015
687.812866	359.991211
687.728088	368.268127
687.643311	376.540771
687.558533	370.866730
687.473755	377.740479
687.388977	365.101410
687.304199	384.511444
687.219421	352.377930
687.134644	405.199677
687.049866	357.764435
686.965088	366.022430
686.880310	410.451538
686.795471	376.961548
686.710693	407.458374
686.625916	355.912689
686.541138	358.600647
686.456360	383.520233
686.371582	382.031982
686.286804	384.711029
686.201965	356.841858
686.117188	356.749664
686.032410	389.964020
685.947571	385.701019
685.862793	353.699066
685.778015	400.755341
685.693237	384.015717
685.608459	388.074371
685.523621	404.601501
685.438782	354.627411
685.354004	390.543213
685.269226	389.057678
685.184387	394.493774
685.099609	415.149200
685.014832	370.770660
684.929993	410.785034
684.845215	383.023621
684.760376	399.513275
684.675537	382.825348
684.590759	386.871307
684.505920	400.584412
684.421082	349.384857
684.336304	397.615753
684.251465	422.357330
684.166687	429.147400
684.081909	390.409180
683.997070	431.683441
683.912231	424.677460
683.827454	417.675079
683.742615	402.407654
683.657776	418.836365
683.572937	396.689484
683.488098	388.324402
683.403320	364.820160
683.318481	403.262604
683.233643	381.142548
683.148804	386.546143
683.064026	400.198395
682.979187	402.844360
682.894348	413.736145
682.809509	390.267670
682.724670	376.428131
682.639832	401.052856
682.555054	425.664764
682.470215	369.271271
682.385315	399.368195
682.300537	421.217163
682.215698	379.957184
682.130859	423.741058
682.046021	409.921234
681.961182	400.220428
681.876343	401.486694
681.791504	397.272644
681.706665	401.278046
681.621765	384.743439
681.536926	394.225281
681.452148	385.911896
681.367249	424.119080
681.282410	406.227783
681.197571	369.201935
681.112732	433.357697
681.027893	393.610565
680.942993	405.805298
680.858154	378.379852
680.773315	420.616150
680.688477	416.410828
680.603638	390.368835
680.518738	399.819214
680.433899	405.171997
680.349060	395.519470
680.264221	384.508453
680.179321	399.402954
680.094482	444.271179
680.009583	400.557373
679.924744	416.798035
679.839905	408.519043
679.755005	393.437469
679.670166	436.887604
679.585266	421.806396
679.500427	413.534576
679.415588	420.226563
679.330688	398.363342
679.245789	407.774200
679.160950	423.974579
679.076050	399.410309
678.991211	448.200745
678.906311	426.358521
678.821472	435.749634
678.736572	413.921967
678.651733	407.030121
678.566833	394.716156
678.481995	394.613129
678.397034	421.624207
678.312195	441.844391
678.227295	426.824036
678.142456	425.357941
678.057556	438.789734
677.972656	383.163757
677.887756	435.853333
677.802917	457.391113
677.718018	424.802582
677.633118	397.641174
677.548218	415.115417
677.463318	437.987732
677.378479	408.141083
677.293579	428.300995
677.208679	425.487488
677.123779	425.376221
677.038879	459.016144
676.953979	445.399139
676.869080	375.116852
676.784241	401.998474
676.699280	450.444153
676.614441	446.281433
676.529480	477.166992
676.444641	413.705994
676.359680	452.667175
676.274841	425.611237
676.189941	426.846283
676.105042	453.657806
676.020142	405.089722
675.935181	406.329071
675.850281	425.054138
675.765381	437.045563
675.680481	462.474701
675.595581	428.752228
675.510681	431.327240
675.425720	448.677673
675.340820	432.444122
675.255920	420.246979
675.171021	436.244263
675.086121	428.078217
675.001160	427.965942
674.916260	411.758850
674.831360	426.400543
674.746460	419.585999
674.661560	473.083038
674.576599	454.201324
674.491699	458.100525
674.406738	435.215179
674.321838	452.504944
674.236877	439.001923
674.151978	453.605408
674.067078	420.043335
673.982117	439.993500
673.897217	423.833740
673.812256	437.089050
673.727356	424.947388
673.642395	444.875153
673.557495	450.100677
673.472534	425.947693
673.387634	453.868805
673.302673	435.065674
673.217712	437.619690
673.132813	454.844727
673.047852	424.054504
672.962952	407.945129
672.877991	429.162659
672.793091	434.379547
672.708130	471.564117
672.623169	435.482727
672.538269	434.036743
672.453308	457.881409
672.368347	448.445953
672.283447	423.051239
672.198486	441.559845
672.113525	441.443573
672.028564	450.632416
671.943665	437.224213
671.858704	449.066437
671.773743	442.306885
671.688782	448.829834
671.603821	435.436066
671.518860	416.740509
671.433960	448.475037
671.348999	420.500336
671.264038	427.020233
671.179077	446.794617
671.094116	436.073212
671.009155	454.509613
670.924194	478.235229
670.839233	454.269836
670.754272	425.020844
670.669312	424.908691
670.584351	452.587006
670.499390	469.666595
670.414429	477.478577
670.329468	427.104889
670.244507	467.972778
670.159546	436.130615
670.074585	478.295746
669.989563	450.430298
669.904602	445.029083
669.819641	446.231720
669.734680	451.393280
669.649719	442.037415
669.564758	478.857239
669.479736	478.730682
669.394775	445.642426
669.309814	436.297760
669.224854	462.537842
669.139893	483.494293
669.054871	453.073730
668.969910	426.619354
668.884888	450.201324
668.799927	457.978394
668.714966	428.912231
668.630005	434.060059
668.544983	414.220428
668.460022	445.662079
668.375000	469.201324
668.290039	420.461273
668.205078	453.189789
668.120056	413.672394
668.035034	450.324005
667.950073	443.641968
667.865112	448.773254
667.780090	446.030670
667.695129	466.896606
667.610107	435.305023
667.525085	466.649170
667.440125	484.871979
667.355164	469.022034
667.270142	442.702301
667.185120	474.011078
667.100159	466.030914
667.015137	458.054962
666.930115	455.316681
666.845154	452.579834
666.760132	474.690460
666.675110	436.651642
666.590088	453.526672
666.505127	467.779419
666.420105	475.493042
666.335083	483.202545
666.250061	438.683655
666.165100	449.009247
666.080078	464.548950
665.995056	460.511871
665.910034	448.651581
665.825073	445.924652
665.740051	464.055542
665.655029	479.570404
665.570007	471.625977
665.484985	487.130463
665.399963	458.353882
665.314941	489.475098
665.229919	458.110199
665.144958	424.159698
665.059937	479.979462
664.974854	440.839447
664.889832	478.424103
664.804810	467.899048
664.719788	453.481445
664.634766	465.052032
664.549744	468.824310
664.464722	498.561279
664.379700	477.660706
664.294678	486.617065
664.209656	450.163116
664.124634	446.152374
664.039612	452.516602
663.954590	479.617615
663.869507	450.979645
663.784485	465.110809
663.699463	453.329834
663.614441	471.337372
663.529358	480.273529
663.444336	428.377808
663.359314	452.846710
663.274292	490.237579
663.189270	473.295807
663.104187	434.385193
663.019165	482.090668
662.934143	493.591187
662.849060	463.748627
662.764038	475.247803
662.679016	448.008118
662.593933	472.412720
662.508911	445.188202
662.423828	482.481018
662.338806	483.641907
662.253784	459.014801
662.168701	483.383698
662.083618	479.388550
661.998596	461.223846
661.913574	466.252594
661.828491	499.606842
661.743469	495.611450
661.658386	465.878998
661.573303	460.608032
661.488281	492.641693
661.403198	491.224060
661.318176	476.951324
661.233093	462.686188
661.148010	461.277557
661.062988	449.593231
660.977905	462.315063
660.892822	482.733215
660.807800	460.784210
660.722717	461.944092
660.637634	487.477173
660.552612	464.261871
660.467529	473.112640
660.382446	488.367645
660.297363	481.829590
660.212341	468.889404
660.127258	481.571594
660.042175	466.077423
659.957092	482.593750
659.872070	469.666992
659.786987	460.585358
659.701843	429.764465
659.616821	493.585205
659.531738	488.339417
659.446655	498.432800
659.361572	477.856110
659.276489	485.392090
659.191406	490.369965
659.106323	501.728424
659.021240	453.093689
658.936157	481.043640
658.851074	482.190247
658.765991	475.684387
658.680908	493.406067
658.595825	470.330688
658.510742	496.964050
658.425659	468.804321
658.340576	494.150116
658.255493	476.192047
658.170410	453.152008
658.085266	511.567932
658.000183	464.358551
657.915100	465.505676
657.830017	460.294495
657.744934	497.035339
657.659851	453.692932
657.574768	471.358093
657.489624	494.094360
657.404541	476.183990
657.319458	501.445618
657.234314	461.967407
657.149231	465.649597
657.064148	475.672028
656.979065	513.587585
656.893982	466.541687
656.808838	494.299744
656.723694	480.228699
656.638611	504.167786
656.553528	500.232849
656.468384	465.914276
656.383301	505.026489
656.298157	485.909668
656.213074	452.887543
656.127991	484.383270
656.042847	455.172363
655.957764	480.330292
655.872681	478.937195
655.787537	482.598175
655.702393	488.783173
655.617310	501.278076
655.532166	493.569031
655.447021	516.151672
655.361938	470.593323
655.276855	499.476440
655.191711	465.295715
655.106567	502.988953
655.021423	488.990143
654.936340	485.078400
654.851196	473.611084
654.766052	491.112976
654.680969	474.614441
654.595825	473.227753
654.510681	490.715424
654.425598	480.519714
654.340454	513.086670
654.255310	491.575287
654.170166	486.414978
654.085083	483.770508
653.999939	506.251556
653.914795	462.159424
653.829712	507.233582
653.744507	502.075745
653.659424	469.313965
653.574280	481.732208
653.489136	472.822784
653.403992	499.025421
653.318848	480.088104
653.233704	501.261902
653.148560	453.519318
653.063416	497.233337
652.978333	497.098816
652.893188	444.388763
652.807983	454.280212
652.722900	492.942047
652.637695	484.053131
652.552612	485.172546
652.467407	471.290039
652.382324	501.156860
652.297119	472.284271
652.211975	490.892731
652.126831	493.257263
652.041687	490.626831
651.956543	499.230438
651.871399	471.644928
651.786194	483.991119
651.701111	503.812958
651.615906	496.196045
651.530762	484.844055
651.445618	463.529785
651.360474	490.809723
651.275269	503.130341
651.190125	474.358093
651.104980	485.431702
651.019836	470.367706
650.934631	477.704193
650.849487	478.818268
650.764343	494.851807
650.679138	461.156281
650.593994	485.884521
650.508789	489.479614
650.423645	465.748749
650.338501	485.488831
650.253296	466.737152
650.168152	475.297272
650.083008	478.890106
649.997803	486.201874
649.912659	497.229523
649.827454	489.656586
649.742249	503.155792
649.657104	499.302124
649.571899	471.916626
649.486755	480.456329
649.401611	474.135925
649.316406	462.868439
649.231262	486.250854
649.146057	477.459991
649.060913	476.093475
648.975708	472.255127
648.890503	486.957825
648.805359	493.003296
648.720154	478.045990
648.634949	470.506287
648.549805	487.662445
648.464600	492.466675
648.379395	481.227295
648.294250	486.030579
648.209045	503.163605
648.123840	500.560699
648.038696	500.424316
647.953491	502.752441
647.868286	468.122223
647.783081	488.931213
647.697876	508.497620
647.612671	489.895599
647.527527	473.764771
647.442322	444.110229
647.357117	517.782349
647.271912	470.918152
647.186707	489.227936
647.101563	476.805664
647.016296	482.818268
646.931152	490.055786
646.845947	472.731781
646.760681	486.105682
646.675537	499.472229
646.590332	506.697083
646.505066	511.464874
646.419922	490.479797
646.334656	497.701019
646.249451	486.535309
646.164307	493.753540
646.079102	445.849091
645.993835	477.564941
645.908630	492.124695
645.823425	500.557190
645.738220	490.632172
645.653015	468.480682
645.567810	457.346893
645.482605	473.114563
645.397400	470.540802
645.312195	509.511292
645.226929	461.732819
645.141724	477.481842
645.056519	494.443054
644.971252	482.102600
644.886047	479.530304
644.800842	492.817322
644.715637	493.901917
644.630432	477.917389
644.545166	472.911133
644.459961	504.462860
644.374756	487.270233
644.289490	522.454163
644.204285	473.610718
644.119080	484.435516
644.033813	487.953278
643.948608	499.984619
643.863403	458.497650
643.778137	465.666992
643.692932	489.849457
643.607666	458.120636
643.522461	488.365997
643.437195	494.304596
643.351990	519.666687
643.266724	489.178070
643.181519	503.605957
643.096252	488.909637
643.011047	482.711273
642.925781	474.091187
642.840576	496.992401
642.755310	471.407227
642.670105	502.777100
642.584839	497.794312
642.499634	494.025055
642.414368	519.310120
642.329102	492.543488
642.243896	452.483185
642.158630	492.272858
642.073364	489.719208
641.988098	475.078369
641.902893	464.071136
641.817627	467.568085
641.732422	472.270966
641.647156	457.650818
641.561890	511.848480
641.476624	447.744232
641.391357	497.088623
641.306152	482.477539
641.220886	454.609955
641.135620	488.239685
641.050354	449.538971
640.965088	474.717407
640.879822	474.586731
640.794556	467.230835
640.709290	520.072510
640.624023	454.938141
640.538818	454.812836
640.453552	477.542206
640.368286	477.410645
640.283020	467.661377
640.197754	473.541931
640.112488	433.760193
640.027222	463.671143
639.941956	452.735321
639.856689	459.813843
639.771423	457.286591
639.686157	483.558197
639.600891	454.635254
639.515625	477.295288
639.430359	478.362518
639.345093	453.060516
639.259827	481.693298
639.174561	448.018829
639.089233	467.056458
639.003967	475.308289
638.918701	458.420166
638.833435	495.387848
638.748108	471.325867
638.662903	465.216064
638.577637	492.586304
638.492310	447.030060
638.407043	451.686279
638.321777	451.561462
638.236450	450.242401
638.151184	436.984528
638.065918	454.767975
637.980652	472.541565
637.895325	448.551758
637.810059	477.050751
637.724731	484.072601
637.639526	485.130676
637.554199	455.205505
637.468872	489.627502
637.383606	440.661896
637.298340	472.687469
637.213013	493.982361
637.127747	453.385986
637.042480	481.812317
636.957153	447.188324
636.871826	432.796448
636.786560	464.770721
636.701233	497.915588
636.615967	452.633148
636.530640	471.510681
636.445374	484.440948
636.360046	440.386719
636.274780	490.105927
636.189453	459.124512
636.104187	466.113464
636.018860	481.398438
635.933533	451.630402
635.848267	465.725800
635.762939	453.749359
635.677673	459.545471
635.592346	496.124054
635.507019	449.820587
635.421753	473.363953
635.336426	444.838623
635.251099	430.522095
635.165771	456.415924
635.080505	442.104034
634.995178	456.162476
634.909912	469.031647
634.824524	437.011322
634.739258	460.505615
634.653931	456.836304
634.568604	443.727966
634.483276	494.336029
634.398010	459.993958
634.312683	465.761810
634.227356	472.705231
634.142029	494.965057
634.056702	483.045837
633.971436	452.287842
633.886047	481.599670
633.800781	455.567780
633.715393	449.556763
633.630127	449.431702
633.544800	481.063904
633.459473	451.533295
633.374146	469.040710
633.288818	441.880249
633.203491	453.506073
633.118103	451.030670
633.032776	492.003174
632.947510	477.779266
632.862122	465.910400
632.776794	486.899109
632.691528	462.132050
632.606140	437.378723
632.520813	490.008972
632.435486	453.542145
632.350159	467.475098
632.264832	461.488312
632.179443	461.359619
632.094177	440.159485
632.008789	472.805420
631.923462	459.803711
631.838135	443.300201
631.752808	440.837860
631.667419	453.573883
631.582092	440.591827
631.496765	428.785339
631.411438	455.530212
631.326050	443.726044
631.240723	423.756775
631.155396	469.153290
631.070068	479.522766
630.984680	460.726471
630.899353	454.767395
630.814026	490.778412
630.728638	476.656250
630.643311	452.056061
630.557922	442.611572
630.472595	440.158936
630.387207	435.379425
630.301880	427.111145
630.216492	454.914856
630.131165	441.993073
630.045837	451.171936
629.960449	446.395752
629.875122	442.784363
629.789734	444.984131
629.704346	426.275391
629.619019	470.281219
629.533630	439.967102
629.448303	434.041229
629.362915	469.886292
629.277588	439.597626
629.192200	442.953186
629.106873	424.281281
629.021484	470.518951
628.936096	437.946625
628.850769	414.658630
628.765381	448.122650
628.680054	445.681793
628.594666	450.186035
628.509277	454.687683
628.423950	431.427338
628.338562	447.494781
628.253174	468.177124
628.167786	461.111786
628.082397	445.962952
627.997070	459.698059
627.911682	441.093903
627.826294	461.748810
627.740906	458.157043
627.655518	443.030029
627.570190	461.360016
627.484802	448.546631
627.399414	436.893158
627.314026	449.447144
627.228638	447.016663
627.143311	456.105347
627.057861	453.674255
626.972473	445.488831
626.887146	462.625763
626.801758	425.680145
626.716370	458.915222
626.630981	426.590668
626.545593	434.517334
626.460205	463.124969
626.374817	417.039886
626.289429	436.447876
626.204041	431.732178
626.118652	425.871185
626.033264	409.685242
625.947876	442.840332
625.862488	416.336243
625.777039	419.658875
625.691711	431.003571
625.606262	445.779724
625.520874	435.343414
625.435486	443.238007
625.350098	444.258148
625.264709	402.924744
625.179321	470.327881
625.093872	424.434235
625.008484	427.745697
624.923096	407.044250
624.837708	459.510254
624.752319	466.237122
624.666870	443.257324
624.581482	449.984894
624.496094	435.014923
624.410706	409.780334
624.325256	455.309784
624.239868	432.365204
624.154480	451.631409
624.069031	399.056519
623.983643	422.880493
623.898254	474.039398
623.812866	451.121643
623.727417	420.244629
623.641968	391.662109
623.556580	410.901428
623.471130	424.440247
623.385742	435.696198
623.300354	411.690491
623.214905	421.806641
623.129517	427.370544
623.044067	413.614105
622.958679	431.672852
622.873230	433.822113
622.787842	434.834778
622.702393	448.332001
622.617004	447.070496
622.531555	428.794006
622.446167	441.147278
622.360718	447.824829
622.275330	409.162048
622.189880	410.179352
622.104492	438.382507
622.019043	437.125946
621.933594	437.002167
621.848145	419.901245
621.762756	416.387848
621.677368	428.712769
621.591919	434.245544
621.506470	435.253021
621.421021	461.124451
621.335632	430.486816
621.250183	433.753479
621.164734	421.208832
621.079346	434.636505
620.993835	431.127441
620.908447	394.900024
620.822998	409.451569
620.737610	396.931305
620.652161	446.421051
620.566711	421.500244
620.481262	433.774170
620.395813	442.661987
620.310364	432.401917
620.224915	417.644714
620.139465	408.522858
620.054077	426.408264
619.968628	438.659607
619.883179	434.037231
619.797729	437.286316
619.712280	402.323944
619.626831	448.272736
619.541382	426.805115
619.455933	427.806641
619.370483	432.175171
619.285034	409.608032
619.199585	399.394501
619.114136	397.037781
619.028687	424.956268
618.943237	422.593506
618.857788	426.955780
618.772339	397.706482
618.686890	415.513031
618.601440	440.027344
618.515991	395.128357
618.430481	411.801239
618.345032	431.820709
618.259583	398.146118
618.174133	446.109711
618.088684	442.629395
618.003235	398.923462
617.917725	433.440338
617.832275	412.097717
617.746826	393.000153
617.661377	401.817444
617.575867	396.123688
617.490479	427.245422
617.404968	462.810181
617.319519	410.278503
617.234070	393.442963
617.148560	379.959717
617.063110	421.066864
616.977661	409.810577
616.892212	399.673981
616.806702	410.689728
616.721252	410.572510
616.635803	408.230621
616.550293	437.026764
616.464844	445.795685
616.379333	382.319000
616.293884	432.208191
616.208435	397.651245
616.122925	407.531616
616.037476	408.525299
615.951965	409.518372
615.866516	427.153168
615.781006	405.956818
615.695557	393.643372
615.610046	401.290588
615.524597	420.015594
615.439087	411.032257
615.353638	410.914703
615.268127	408.582611
615.182617	406.251831
615.097168	406.135590
615.011719	398.275116
614.926208	392.631134
614.840698	404.681274
614.755249	425.567474
614.669739	411.079926
614.584229	420.904846
614.498779	411.948944
614.413269	430.600739
614.327759	392.948578
614.242310	408.284607
614.156799	399.342377
614.071289	426.798950
613.985840	399.113525
613.900330	393.488068
613.814880	381.254456
613.729370	374.535706
613.643860	393.149719
613.558350	406.248291
613.472839	399.527985
613.387329	399.413391
613.301880	393.798798
613.216370	389.287079
613.130859	408.963928
613.045349	393.459869
612.959839	391.149445
612.874390	420.694458
612.788818	406.298309
612.703369	414.963928
612.617859	383.018036
612.532349	389.490967
612.446838	412.412781
612.361328	385.977600
612.275818	369.423523
612.190308	391.235291
612.104797	425.085876
612.019287	396.486725
611.933777	383.233307
611.848267	384.217743
611.762756	400.522095
611.677246	394.936859
611.591736	409.041260
611.506226	407.830200
611.420715	391.316895
611.335205	403.224518
611.249695	386.721924
611.164185	405.176666
611.078613	394.141968
610.993164	392.936981
610.907654	404.826782
610.822083	397.074158
610.736572	420.951843
610.651062	389.213776
610.565552	401.090759
610.479980	386.810303
610.394470	391.056000
610.309021	413.811829
610.223450	386.475922
610.137939	385.276154
610.052368	405.837738
609.966919	400.282104
609.881409	407.778503
609.795837	378.309296
609.710266	384.720856
609.624756	405.252747
609.539246	413.825043
609.453735	401.761353
609.368225	379.934814
609.282654	402.614655
609.197083	392.734283
609.111572	391.536285
609.026062	381.664734
608.940552	403.233734
608.855042	371.691437
608.769470	384.584076
608.683899	362.812500
608.598389	395.188934
608.512817	387.497925
608.427307	378.729248
608.341736	378.619751
608.256226	420.687134
608.170715	366.508209
608.085205	399.908020
607.999634	390.067657
607.914063	383.473572
607.828552	412.519775
607.742981	395.127075
607.657410	401.488342
607.571899	386.266724
607.486328	412.042389
607.400818	404.374756
607.315308	394.555481
607.229736	400.907440
607.144165	405.100922
607.058594	381.287720
606.973083	403.789459
606.887512	403.672455
606.801941	402.479309
606.716370	394.831818
606.630859	393.641846
606.545288	368.797821
606.459717	385.889313
606.374207	410.492950
606.288635	406.076782
606.203125	400.589142
606.117493	373.631592
606.031982	405.723450
605.946411	374.487823
605.860901	409.778870
605.775269	382.849731
605.689697	380.594391
605.604187	390.129974
605.518616	382.516357
605.433044	368.480133
605.347473	370.514832
605.261902	368.266113
605.176331	374.580505
605.090820	391.590363
605.005188	371.153992
604.919678	414.887299
604.834106	423.318604
604.748535	381.517181
604.662964	393.158264
604.577454	390.907806
604.491821	386.523132
604.406311	390.680450
604.320679	400.170898
604.235107	382.985474
604.149536	385.007019
604.064026	381.696381
603.978455	416.759338
603.892883	389.998749
603.807251	403.733582
603.721680	372.732483
603.636108	382.205688
603.550537	398.059296
603.464966	390.495209
603.379395	368.043518
603.293823	398.774872
603.208191	413.541931
603.122681	398.542480
603.037048	400.551239
602.951477	386.626373
602.865845	407.750641
602.780334	375.785492
602.694702	405.390381
602.609131	422.246887
602.523560	376.517365
602.437988	379.588409
602.352356	414.457428
602.266785	378.307190
602.181213	391.968658
602.095642	377.027283
602.010071	354.683319
601.924438	382.099396
601.838928	401.034271
601.753296	374.471405
601.667664	385.994720
601.582153	400.682922
601.496460	395.281311
601.410950	380.373505
601.325317	380.262299
601.239746	427.670044
601.154175	342.036011
601.068542	368.319946
600.982910	386.148071
600.897339	409.239410
600.811768	391.194366
600.726196	374.213928
600.640564	383.588776
600.554932	370.834442
600.469360	366.513092
600.383728	388.516510
600.298157	421.032806
600.212585	374.609497
600.126953	419.734314
600.041382	405.939819
599.955750	380.588531
599.870117	401.497864
599.784546	383.517761
599.698975	389.707916
599.613342	376.992310
599.527710	385.280273
599.442139	379.919830
599.356506	377.710052
599.270874	367.110413
599.185303	391.120087
599.099670	391.005341
599.014038	422.329590
598.928467	422.205658
598.842834	379.140442
598.757202	393.687775
598.671631	387.291809
598.585999	399.735260
598.500366	381.833862
598.414734	407.867065
598.329163	377.427612
598.243530	396.130341
598.157898	383.475281
598.072266	388.585541
597.986633	366.541534
597.901062	381.049408
597.815430	409.116333
597.729797	389.172302
597.644226	361.938568
597.558533	382.687012
597.472900	382.574493
597.387329	375.167053
597.301697	382.349457
597.216125	379.112427
597.130432	375.877258
597.044800	378.889374
596.959167	420.401794
596.873596	370.344025
596.787903	375.434937
596.702332	423.149658
596.616699	414.710052
596.531067	375.103363
596.445374	368.760315
596.359802	389.420776
596.274170	369.581207
596.188538	389.191345
596.102905	375.588654
596.017273	373.403503
595.931580	391.958099
595.846008	375.256592
595.760315	383.436462
595.674744	383.323395
595.589111	379.067505
595.503479	403.805237
595.417786	376.773712
595.332153	393.219147
595.246521	384.827240
595.160889	405.397186
595.075256	408.379120
594.989624	386.553680
594.903992	393.672363
594.818359	374.962921
594.732666	370.721558
594.647034	400.550079
594.561401	376.694824
594.475708	376.583527
594.390076	372.346527
594.304443	421.730499
594.218811	381.403839
594.133118	373.046936
594.047546	393.540894
593.961853	383.125427
593.876221	378.893707
593.790527	375.693756
593.704895	389.988525
593.619263	389.873138
593.533569	386.672607
593.447937	391.698578
593.362305	386.443756
593.276672	354.477753
593.190979	356.427124
593.105286	400.476715
593.019714	395.225311
592.934021	399.213257
592.848389	370.368378
592.762756	378.463806
592.677063	361.946198
592.591431	372.089325
592.505676	386.325317
592.420105	394.406250
592.334412	393.265198
592.248779	406.458313
592.163086	371.538055
592.077393	380.636810
591.991760	378.478088
591.906067	370.184906
591.820435	408.922729
591.734802	381.207275
591.649109	366.790344
591.563477	359.531677
591.477783	402.310883
591.392090	393.004303
591.306458	411.256378
591.220764	389.710358
591.135071	389.594604
591.049438	413.948730
590.963745	364.900543
590.878113	383.133606
590.792358	390.150421
590.706787	410.401794
590.621033	411.297852
590.535400	378.607178
590.449768	355.093048
590.364014	378.382019
590.278320	401.657104
590.192688	378.156952
590.107056	379.060699
590.021362	355.581116
589.935608	392.038483
589.849976	365.522919
589.764343	372.519379
589.678589	379.511627
589.592957	404.759460
589.507202	408.695465
589.421570	377.144989
589.335876	410.479065
589.250244	395.158356
589.164551	373.769196
589.078857	378.720917
588.993164	390.755890
588.907471	382.543243
588.821838	396.593231
588.736084	377.258087
588.650391	377.145569
588.564758	397.249329
588.479004	400.162354
588.393372	377.818359
588.307678	365.586731
588.221985	378.602509
588.136292	373.442993
588.050598	384.430542
587.964905	374.228760
587.879211	378.150604
587.793518	369.972870
587.707825	384.979370
587.622070	387.886871
587.536438	374.677399
587.450684	376.579254
587.365051	400.625000
587.279358	393.461182
587.193604	397.367554
587.107971	347.969788
587.022217	393.108398
586.936523	403.041748
586.850830	394.882874
586.765137	399.787231
586.679443	371.550293
586.593750	386.497467
586.508057	387.385376
586.422302	386.266144
586.336609	390.162476
586.250916	378.013428
586.165222	382.912170
586.079529	383.799591
585.993774	369.659607
585.908081	363.539948
585.822327	382.453613
585.736694	387.343445
585.650940	389.228546
585.565247	383.110168
585.479553	393.995209
585.393799	398.875519
585.308167	395.757751
585.222351	375.657318
585.136719	389.527679
585.050964	373.434998
584.965271	410.256012
584.879578	411.130798
584.793823	391.055603
584.708130	366.005951
584.622375	395.805847
584.536682	384.723389
584.450989	381.618713
584.365295	398.437714
584.279541	417.238159
584.193787	388.243439
584.108093	391.112396
584.022400	356.173462
583.936707	378.942200
583.850891	396.725708
583.765259	388.654449
583.679443	386.550201
583.593750	373.519745
583.508057	381.352264
583.422302	374.287903
583.336609	384.100403
583.250854	386.961487
583.165161	378.909760
583.079407	393.669922
582.993713	382.647003
582.907959	404.334167
582.822205	369.537354
582.736511	355.560211
582.650757	384.166626
582.565063	411.765961
582.479309	384.924774
582.393555	395.690308
582.307861	383.703949
582.222107	401.383667
582.136353	372.601074
582.050659	358.656281
581.964905	403.984009
581.879150	374.239075
581.793457	390.907593
581.707703	402.631805
581.621948	368.967834
581.536194	381.677734
581.450500	387.478302
581.364746	393.275269
581.278992	394.141937
581.193237	384.172394
581.107544	385.041168
581.021790	403.629700
580.936035	380.872040
580.850281	399.450500
580.764526	421.951965
580.678772	420.841217
580.593079	375.497131
580.507385	363.591522
580.421631	417.512695
580.335815	375.156799
580.250061	379.952332
580.164307	407.319214
580.078613	411.120819
579.992859	392.359436
579.907104	368.706299
579.821350	380.358429
579.735596	384.163361
579.649841	375.229706
579.564087	388.827972
579.478333	401.438812
579.392578	410.126709
579.306824	411.959564
579.221069	412.813049
579.135315	386.283813
579.049622	418.428864
578.963806	378.231110
578.878052	385.932861
578.792297	362.373932
578.706543	400.345764
578.620789	412.914459
578.535034	382.537598
578.449280	382.421600
578.363525	411.563721
578.277771	380.239746
578.192017	382.073761
578.106201	383.906616
578.020447	394.505096
577.934753	408.992249
577.848938	390.371704
577.763184	396.092407
577.677429	359.001801
577.591675	381.262787
577.505920	393.787109
577.420166	358.674835
577.334351	398.406525
577.248596	381.771240
577.162842	407.875824
577.077026	378.626740
576.991272	406.657410
576.905518	377.426361
576.819763	367.612091
576.734009	407.256287
576.648193	401.316254
576.562439	407.977692
576.476685	401.072174
576.390869	371.895813
576.305115	413.414551
576.219360	391.027283
576.133606	387.037903
576.047791	366.606781
575.962036	407.109406
575.876282	395.384918
575.790466	386.566772
575.704651	386.449036
575.618896	387.297150
575.533142	387.179138
575.447327	415.053131
575.361572	393.697845
575.275818	391.648560
575.190002	407.923248
575.104248	382.733215
575.018433	388.399139
574.932617	400.805878
574.846863	387.199097
574.761108	389.969635
574.675293	394.663635
574.589539	398.392426
574.503784	376.144684
574.417969	427.962402
574.332153	381.683624
574.246399	403.673004
574.160583	409.314728
574.074829	367.886536
573.989014	425.388947
573.903198	398.380310
573.817444	400.177917
573.731628	380.868317
573.645874	391.301727
573.560120	400.769928
573.474243	366.141907
573.388489	407.232269
573.302673	395.612946
573.216919	400.279999
573.131104	403.986847
573.045288	402.906219
572.959534	419.047363
572.873718	374.923065
572.787903	366.203033
572.702148	387.119659
572.616333	387.001160
572.530518	394.524780
572.444702	361.934875
572.358887	378.053619
572.273132	418.022125
572.187378	377.822052
572.101563	410.135620
572.015747	386.172150
571.929932	401.305298
571.844116	403.088165
571.758362	384.864532
571.672485	393.317596
571.586731	432.231079
571.500916	411.159821
571.415100	406.276367
571.329285	401.395874
571.243469	408.879761
571.157654	388.791870
571.071899	380.119873
570.986084	415.153473
570.900208	390.333405
570.814453	404.454926
570.728638	402.432465
570.642883	395.666962
570.557007	407.876587
570.471191	403.009979
570.385376	390.562592
570.299561	395.180939
570.213745	396.954254
570.127991	402.514801
570.042175	398.603851
569.956360	399.427795
569.870544	399.304962
569.784729	414.317017
569.698853	388.657349
569.613037	397.991241
569.527283	419.605072
569.441467	392.077759
569.355652	406.124207
569.269775	381.450378
569.183960	420.976471
569.098145	395.369568
569.012329	397.134430
568.926514	388.524933
568.840637	409.145325
568.754883	400.537292
568.669067	439.042053
568.583252	391.813751
568.497375	385.101990
568.411560	380.276886
568.325745	389.569519
568.239868	413.907562
568.154053	418.481964
568.068298	393.909790
567.982422	392.848450
567.896606	399.304016
567.810791	374.760345
567.724915	399.057617
567.639160	393.302429
567.553284	411.010223
567.467468	410.883301
567.381592	389.187042
567.295776	429.379791
567.209961	404.879395
567.124146	405.691254
567.038269	403.692627
566.952454	418.549500
566.866638	424.972595
566.780762	430.455872
566.694946	380.742126
566.609131	424.578583
566.523254	403.879333
566.437500	384.127472
566.351624	400.826538
566.265747	398.834473
566.179932	397.777313
566.094055	402.321503
566.008240	401.263824
565.922363	399.273834
565.836548	416.869507
565.750732	378.515930
565.664917	415.679352
565.579041	409.960236
565.493164	422.873383
565.407349	395.739014
565.321533	401.201569
565.235657	389.910339
565.149780	434.443176
565.063965	406.408600
564.978088	425.806458
564.892273	400.580078
564.806396	428.329803
564.720581	406.833527
564.634766	427.135559
564.548889	400.083282
564.463074	415.734772
564.377197	423.027283
564.291382	430.315186
564.205505	409.785065
564.119629	429.121216
564.033752	422.502167
563.947937	418.665924
563.862061	396.312744
563.776184	372.122040
563.690369	410.872742
563.604553	428.321991
563.518677	423.564789
563.432800	421.584076
563.346924	432.543884
563.261108	408.386627
563.175232	417.496277
563.089355	412.749542
563.003479	408.928772
562.917664	409.724365
562.831848	402.216736
562.745972	420.536133
562.660034	426.858826
562.574158	411.979492
562.488342	415.536682
562.402527	415.407288
562.316589	420.802673
562.230774	430.797180
562.144897	429.742737
562.059021	388.211853
561.973206	420.278503
561.887268	400.840973
561.801453	419.097504
561.715576	392.322021
561.629700	404.140198
561.543823	449.924866
561.457947	411.231598
561.372131	411.103302
561.286194	393.545319
561.200378	418.183380
561.114441	430.887817
561.028625	408.757416
560.942749	404.964966
560.856873	420.409271
560.770996	364.424042
560.685120	395.432220
560.599243	425.505920
560.513367	426.287750
560.427490	397.805237
560.341614	395.852509
560.255737	393.900970
560.169861	405.655121
560.083984	399.134857
559.998108	411.792969
559.912231	391.583038
559.826355	397.848022
559.740479	376.742767
559.654602	441.371552
559.568726	403.856232
559.482849	439.272675
559.396973	410.892059
559.311035	406.209503
559.225220	396.977356
559.139282	421.428802
559.053467	411.287628
558.967529	397.514160
558.881653	391.933472
558.795776	404.537720
558.709900	404.410950
558.624023	387.931152
558.538147	416.872589
558.452209	409.478424
558.366333	405.719421
558.280457	391.981750
558.194580	391.858795
558.108704	395.363068
558.022827	416.995331
557.936890	396.927490
557.851013	429.416870
557.765137	389.433136
557.679199	410.134491
557.593323	397.334473
557.507446	416.210632
557.421570	399.798553
557.335693	379.779755
557.249817	406.779053
557.163879	411.169617
557.077942	399.296417
556.992065	411.814331
556.906189	407.170807
556.820313	390.797211
556.734375	405.110352
556.648499	404.080994
556.562622	417.479156
556.476746	384.897461
556.390808	426.227722
556.304932	383.754486
556.218994	395.340881
556.133118	383.513000
556.047241	377.992401
555.961304	369.776093
555.875427	376.855011
555.789490	362.350220
555.703613	408.077393
555.617737	423.224457
555.531799	361.109619
555.445923	408.589813
555.359985	376.143250
555.274048	411.024597
555.188171	415.380798
555.102295	391.931274
555.016357	372.082825
554.930481	426.639923
554.844543	393.352631
554.758606	382.479675
554.672729	402.059021
554.586853	401.036957
554.500916	371.379059
554.415039	364.104980
554.329102	389.031097
554.243225	404.106995
554.157288	425.429596
554.071350	424.401764
553.985474	402.831024
553.899536	404.489594
553.813660	385.616516
553.727722	409.588074
553.641785	414.811005
553.555908	395.060638
553.469971	407.416779
553.384033	369.856659
553.298096	410.722870
553.212219	395.451813
553.126343	385.532562
553.040344	380.070038
552.954468	393.296936
552.868530	403.846832
552.782654	418.836243
552.696716	403.591187
552.610779	430.123993
552.524902	394.451599
552.438904	368.571075
552.353027	413.734283
552.267090	393.189301
552.181152	412.584869
552.095276	412.454102
552.009277	409.663239
551.923401	418.397705
551.837463	392.566589
551.751526	415.474823
551.665649	382.576111
551.579712	418.752563
551.493713	418.619720
551.407837	402.561371
551.321960	391.820007
551.235962	389.043091
551.150085	402.178223
551.064087	379.076233
550.978210	395.739441
550.892273	402.678314
550.806335	382.246338
550.720398	411.247589
550.634460	384.650177
550.548523	415.396027
550.462585	392.340729
550.376648	393.097412
550.290710	388.566925
550.204773	389.324219
550.118835	383.917145
550.032898	389.956879
549.947021	388.072876
549.861084	380.032104
549.775085	407.173309
549.689148	385.944275
549.603271	395.488953
549.517334	380.427124
549.431396	392.602264
549.345459	373.160706
549.259521	390.596771
549.173584	378.187866
549.087646	396.488281
549.001648	363.039490
548.915710	374.319977
548.829773	380.335114
548.743835	374.081421
548.657898	380.968475
548.571960	386.975586
548.486023	390.353088
548.400024	391.978485
548.314148	396.226837
548.228149	388.230865
548.142273	362.757660
548.056274	382.740112
547.970276	371.261719
547.884399	381.622559
547.798401	380.627716
547.712524	398.833282
547.626587	391.726379
547.540588	393.345581
547.454651	407.170074
547.368652	410.526428
547.282715	390.354706
547.196777	368.453705
547.110840	367.465179
547.024902	389.109985
546.938965	382.023865
546.852966	378.421967
546.767029	394.824402
546.681091	390.351196
546.595093	381.535309
546.509155	385.757355
546.423157	382.159698
546.337219	392.456573
546.251282	392.330933
546.165344	380.057373
546.079407	386.007690
545.993469	385.884064
545.907471	366.689178
545.821472	402.102264
545.735535	368.186890
545.649536	381.925598
545.563599	377.474365
545.477661	403.318024
545.391724	375.501953
545.305725	377.976349
545.219727	384.772369
545.133850	388.970856
545.047852	393.166595
544.961914	365.398041
544.875916	370.462067
544.789978	400.557648
544.703979	365.046326
544.618042	378.732605
544.532043	395.859772
544.446106	373.316437
544.360168	377.505951
544.274170	370.491821
544.188171	391.906067
544.102234	386.613800
544.016235	404.565918
543.930298	358.829285
543.844299	381.940002
543.758362	368.917969
543.672424	406.624908
543.586365	394.462585
543.500427	379.730682
543.414490	372.737762
543.328491	386.354889
543.242554	371.639618
543.156555	386.106232
543.070618	385.981934
542.984619	361.848755
542.898621	375.447205
542.812622	363.329559
542.726685	364.925781
542.640686	356.244659
542.554749	383.524475
542.468750	391.958954
542.382751	370.444366
542.296753	358.351410
542.210815	387.305115
542.124878	370.940887
542.038818	387.909790
541.952881	385.222229
541.866882	372.289825
541.780884	367.048096
541.694885	375.462921
541.608948	363.399048
541.522949	371.809479
541.436951	373.394440
541.350952	381.796112
541.265015	373.153351
541.179016	360.257721
541.093079	400.157043
541.007080	374.494080
540.921021	377.776459
540.835083	383.608368
540.749084	366.478424
540.663086	371.460083
540.577148	390.884186
540.491150	383.962006
540.405151	385.536224
540.319153	365.886261
540.233154	389.530060
540.147156	392.797546
540.061218	382.493225
539.975220	395.086792
539.889221	364.447052
539.803223	366.023621
539.717224	371.834106
539.631226	400.502441
539.545227	373.286194
539.459229	376.549957
539.373230	360.355774
539.287231	351.782654
539.201233	371.111877
539.115295	385.358002
539.029297	397.905182
538.943298	370.751038
538.857300	362.188171
538.771301	391.610260
538.685303	372.921539
538.599243	359.305481
538.513245	366.777374
538.427307	386.887787
538.341309	368.224579
538.255310	386.636627
538.169312	387.353149
538.083313	391.436340
537.997253	380.369385
537.911316	381.087067
537.825317	367.507599
537.739258	379.158051
537.653259	373.151794
537.567322	378.911621
537.481262	380.468201
537.395264	373.627594
537.309265	382.738831
537.223267	387.648743
537.137268	379.973511
537.051208	378.172852
536.965210	390.623505
536.879272	382.116638
536.793274	380.316833
536.707214	380.193024
536.621216	371.697693
536.535217	363.207794
536.449219	371.455627
536.363159	377.188995
536.277161	361.180847
536.191162	367.749512
536.105164	389.353241
536.019104	395.908325
535.933167	362.380157
535.847107	368.939667
535.761108	390.514587
535.675110	365.362427
535.589111	370.246582
535.503052	375.127472
535.417053	342.504639
535.331055	373.216553
535.245056	375.593140
535.158997	367.145233
535.072998	372.851166
534.987000	370.233459
534.901001	358.468567
534.814941	362.508667
534.728943	368.208435
534.642944	411.294861
534.556885	387.072266
534.470886	376.981476
534.384827	394.290039
534.298828	401.629425
534.212830	402.327637
534.126770	396.391174
534.040771	395.432526
533.954773	391.159515
533.868774	362.035553
533.782715	386.762634
533.696716	406.506012
533.610657	386.509491
533.524597	371.490234
533.438660	405.279785
533.352600	396.878723
533.266541	390.136261
533.180542	389.182159
533.094482	389.054657
533.008484	372.412201
532.922485	380.544922
532.836487	397.749512
532.750427	387.719879
532.664368	390.891418
532.578369	389.938812
532.492310	402.996918
532.406311	377.325226
532.320251	410.968384
532.234192	391.073975
532.148193	388.476501
532.062134	403.981689
531.976135	408.784088
531.890137	418.516632
531.804077	413.447418
531.718018	405.094696
531.632019	413.175842
531.545959	400.722809
531.459961	425.217621
531.373901	416.871735
531.287903	424.117798
531.201843	401.836365
531.115784	398.425018
531.029785	418.782379
530.943726	415.367584
530.857727	409.497955
530.771667	422.462860
530.685608	422.323822
530.599609	412.366577
530.513550	432.678802
530.427551	421.089294
530.341492	411.959442
530.255432	433.885773
530.169373	409.237610
530.083374	442.582275
529.997253	424.477783
529.911255	455.347229
529.825256	442.144897
529.739136	426.504730
529.653137	457.342773
529.567139	458.006927
529.481018	473.335022
529.395020	443.859711
529.308960	456.739746
529.222900	477.750061
529.136902	440.166077
529.050842	481.501526
528.964783	491.912598
528.878723	462.489044
528.792664	473.711914
528.706665	476.804565
528.620544	453.098938
528.534485	460.254883
528.448486	473.086334
528.362427	442.915588
528.276428	479.261169
528.190369	475.049438
528.104248	476.513184
528.018250	447.190979
527.932190	434.085327
527.846130	468.754242
527.760071	449.175385
527.674011	474.107544
527.587952	467.480347
527.501892	447.921112
527.415894	458.280151
527.329773	458.936432
527.243774	471.707977
527.157715	483.663544
527.071655	478.660217
526.985657	468.818665
526.899536	479.149780
526.813477	482.216522
526.727417	469.158875
526.641357	489.955414
526.555298	485.765076
526.469299	481.577454
526.383240	499.128754
526.297119	490.915405
526.211060	501.211212
526.125061	517.129822
526.039001	481.583191
525.952881	498.301300
525.866821	462.784332
525.780762	501.183228
525.694702	491.381897
525.608643	516.903320
525.522583	527.162598
525.436523	521.372681
525.350464	495.540405
525.264404	502.589935
525.178345	525.660950
525.092285	497.449615
525.006165	510.096710
524.920105	506.725037
524.834106	508.157013
524.748047	535.987366
524.661926	527.811890
524.575867	517.243469
524.489807	537.850098
524.403748	552.850525
524.317688	559.854309
524.231567	563.659851
524.145569	564.270325
524.059448	527.381104
523.973389	564.692078
523.887329	542.178955
523.801270	589.024658
523.715210	550.582397
523.629150	564.736328
523.543030	564.548096
523.456970	577.891785
523.370911	571.333252
523.284790	589.438354
523.198730	595.603333
523.112671	591.429993
523.026611	577.723328
522.940552	602.951416
522.854431	605.926697
522.768372	576.351196
522.682312	617.426331
522.596191	597.386597
522.510132	615.427856
522.424072	596.987610
522.338013	617.394409
522.251892	611.642151
522.165833	623.317993
522.079712	612.816895
521.993652	636.356689
521.907593	629.022888
521.821533	638.304077
521.735413	619.113953
521.649353	633.924988
521.563293	644.775269
521.477173	631.921082
521.391113	649.871277
521.305054	660.704956
521.218933	666.796692
521.132874	683.139160
521.046753	626.921204
520.960693	666.127014
520.874634	658.811401
520.788513	680.648804
520.702454	656.007446
520.616333	695.937866
520.530273	688.621643
520.444214	677.376526
520.358093	715.686401
520.272034	694.218872
520.185913	699.487610
520.099854	702.395691
520.013733	716.297485
519.927673	688.576843
519.841553	693.055115
519.755493	717.145813
519.669373	682.393188
519.583313	698.630127
519.497253	730.532654
519.411133	705.996643
519.325012	737.091736
519.238892	722.749329
519.152832	763.210999
519.066711	740.261536
518.980652	734.536926
518.894531	768.697571
518.808472	732.479614
518.722412	759.584595
518.636292	739.017822
518.550171	730.178894
518.464111	752.572815
518.377991	776.512451
518.291931	770.790039
518.205811	793.927246
518.119690	813.150635
518.033630	786.378418
517.947510	793.125549
517.861389	806.877502
517.775330	801.155640
517.689270	830.461609
517.603088	815.398804
517.517029	838.457642
517.430908	846.727844
517.344849	824.678894
517.258728	865.582031
517.172607	877.717957
517.086548	882.080750
517.000427	887.216736
516.914307	890.021179
516.828186	871.879883
516.742126	887.869629
516.656006	882.143738
516.569885	938.414185
516.483826	921.829712
516.397705	930.036621
516.311646	899.531677
516.225525	944.885620
516.139404	950.755127
516.053284	925.686951
515.967163	949.339478
515.881104	923.515625
515.794983	931.701477
515.708862	942.970825
515.622742	968.128967
515.536621	929.212891
515.450500	952.043823
515.364380	944.780396
515.278320	972.987183
515.192200	979.594421
515.106079	1007.770020
515.019958	998.956543
514.933899	967.820435
514.847778	985.965027
514.761658	1017.177368
514.675537	1031.446777
514.589417	1019.563782
514.503296	1003.845398
514.417175	1044.997681
514.331116	1053.092651
514.244995	1045.057007
514.158875	1027.815430
514.072754	1064.298950
513.986633	1054.733032
513.900513	1097.316895
513.814392	1089.278931
513.728271	1082.012573
513.642151	1086.241455
513.556091	1074.385986
513.469971	1074.021240
513.383850	1122.632935
513.297729	1136.021484
513.211609	1122.635010
513.125488	1153.597168
513.039368	1141.741821
512.953247	1190.247070
512.867126	1203.588989
512.781006	1184.857178
512.694885	1163.085327
512.608765	1214.568237
512.522644	1185.936646
512.436523	1201.543579
512.350403	1189.702515
512.264282	1212.916016
512.178162	1220.119385
512.092041	1236.453979
512.005859	1207.872070
511.919769	1215.829956
511.833649	1217.697632
511.747498	1208.158936
511.661377	1247.270752
511.575287	1274.198853
511.489166	1232.748779
511.403046	1274.089600
511.316895	1266.064819
511.230743	1264.115601
511.144653	1251.548218
511.058533	1303.440918
510.972382	1308.302246
510.886261	1261.633789
510.800140	1311.196899
510.714020	1303.177124
510.627899	1305.003174
510.541748	1305.314209
510.455627	1347.229492
510.369476	1308.203735
510.283356	1315.316162
510.197205	1344.337891
510.111115	1337.835205
510.024994	1339.643433
509.938812	1301.440796
509.852692	1315.333984
509.766571	1325.445435
509.680450	1340.074585
509.594299	1354.693604
509.508209	1356.490967
509.422028	1381.640625
509.335907	1358.575073
509.249786	1352.087402
509.163666	1345.604004
509.077484	1343.638672
508.991364	1349.947144
508.905243	1348.732910
508.819122	1361.798706
508.732971	1365.839966
508.646851	1373.633301
508.560699	1367.907104
508.474548	1380.197021
508.388397	1348.963257
508.302246	1362.000732
508.216125	1366.781860
508.129974	1427.021484
508.043854	1392.067383
507.957733	1416.305786
507.871552	1455.501709
507.785431	1426.560791
507.699280	1428.315674
507.613159	1442.036255
507.527008	1416.119751
507.440857	1432.076782
507.354706	1410.664063
507.268616	1431.093140
507.182434	1364.895264
507.096283	1377.115112
507.010162	1337.842163
506.924011	1342.603394
506.837860	1330.957275
506.751740	1320.064331
506.665558	1322.590820
506.579437	1272.974731
506.493317	1252.432373
506.407135	1290.707642
506.321014	1291.007568
506.234833	1286.843994
506.148712	1289.375366
506.062561	1250.278320
505.976410	1268.424561
505.890259	1253.131348
505.804108	1215.571533
505.717957	1211.441162
505.631805	1205.829346
505.545654	1224.700439
505.459503	1164.213745
505.373352	1206.065430
505.287201	1189.346924
505.201050	1194.862915
505.114929	1194.450684
505.028778	1143.701050
504.942627	1135.906372
504.856445	1129.596313
504.770325	1119.593018
504.684143	1133.991211
504.597992	1100.345459
504.511841	1109.568970
504.425690	1089.985352
504.339539	1100.682129
504.253418	1092.922241
504.167206	1114.675781
504.081085	1106.916016
503.994904	1110.219360
503.908783	1126.785156
503.822601	1080.720947
503.736450	1109.067993
503.650299	1099.850220
503.564148	1084.015381
503.477966	1031.407837
503.391785	1046.494507
503.305634	1036.575195
503.219513	974.484375
503.133331	981.493469
503.047180	988.497498
502.961029	952.182190
502.874878	965.062317
502.788696	965.461609
502.702576	902.789795
502.616394	920.805054
502.530212	924.150208
502.444061	894.525146
502.357880	861.990967
502.271759	883.655334
502.185577	871.639099
502.099396	852.315125
502.013245	864.452271
501.927063	813.706848
501.840942	837.542114
501.754761	850.401917
501.668579	809.208008
501.582428	811.117249
501.496246	800.617981
501.410126	795.962402
501.323944	780.370178
501.237762	794.680298
501.151611	752.133057
501.065460	767.171326
500.979248	769.817871
500.893097	744.068359
500.806915	714.697693
500.720764	692.622742
500.634583	733.110107
500.548401	685.597534
500.462250	673.730347
500.376099	703.283691
500.289917	679.797913
500.203735	638.903687
500.117554	675.695679
500.031403	660.224365
